time,seconds_elapsed,z,y,x
1685471912756721000,0.198720947265625,0.05852089077234268,-0.06606071442365646,-0.09550441801548004
1685471912777722600,0.21972265625,0.0007679448463022709,0.003036872949451208,0.001483529806137085
1685471912797722600,0.23972265625,0.0032114058267325163,0.0018151424592360854,0.001483529806137085
1685471912817722600,0.25972265625,0.0017802357906475663,0.0009948377264663577,0.00008726646046852693
1685471912837722600,0.27972265625,0.0006632251315750182,0.00062831852119416,0.0008726646192371845
1685471912857722600,0.29972265625,0.0007504915702156723,0.0004886921960860491,0.0015707963611930609
1685471912877721000,0.31972119140625,-0.00006981316983001307,0.001745329238474369,0.0005235987482592463
1685471912897721000,0.33972119140625,0.00031415926059708,-0.00010471975838299841,0.0010122909443452954
1685471912917721000,0.35972119140625,0.0005585053586401045,0.00043633230961859226,0
1685471912937721000,0.37972119140625,0.00031415926059708,0.001483529806137085,0.0016929693520069122
1685471912957721000,0.39972119140625,0.00062831852119416,0.001972222002223134,0.0016057029133662581
1685471912977722600,0.41972265625,-0.00008726646046852693,-0.00031415926059708,0.0005410520825535059
1685471912997722600,0.43972265625,0.000715585018042475,0.0012042771559208632,0.0016231562476605177
1685471913017722600,0.45972265625,0.0009773843921720982,0.0002617993741296232,0.0010122909443452954
1685471913037722600,0.47972265625,0.0009948377264663577,0.0015882495790719986,0.0019896754529327154
1685471913057722600,0.49972265625,0.0006632251315750182,0.0008203047327697277,0.001029744278639555
1685471913077722600,0.51972265625,0.0010821041651070118,0.001343903481028974,0.0003665191470645368
1685471913097722600,0.53972265625,0.0012740903766825795,0.000017453292457503267,0.0019896754529327154
1685471913117721000,0.55972119140625,0.0010122909443452954,0.00006981316983001307,0.0017802357906475663
1685471913137722600,0.57972265625,0.0005934119690209627,0.0017278759041801095,0.0012042771559208632
1685471913157721000,0.59972119140625,0.00019198621157556772,0.0010821041651070118,0.0008203047327697277
1685471913177721000,0.61972119140625,0.0005759586347267032,0.00006981316983001307,0.0015358896926045418
1685471913197722600,0.63972265625,0.00045378561480902135,0.0003316125657875091,0.0005585053586401045
1685471913217721000,0.65972119140625,0.00031415926059708,0.0021118484437465668,0.0027576202992349863
1685471913237721000,0.67972119140625,0.00062831852119416,0.0014660765882581472,0.000715585018042475
1685471913257721000,0.69972119140625,0.0006108652451075613,0.0012391837080940604,0.001745329238474369
1685471913277722600,0.71972265625,0.00038397242315113544,0.000715585018042475,0.0004886921960860491
1685471913297721000,0.73972119140625,0.0017278759041801095,0.0008028514566831291,0.0002617993741296232
1685471913317721000,0.75972119140625,0.0008901178953237832,0.00125663704238832,0.0011868239380419254
1685471913337721000,0.77972119140625,0.0006632251315750182,0.00027925267932005227,0.000017453292457503267
1685471913357721000,0.79972119140625,0.0003316125657875091,0.0003490658418741077,0.0003490658418741077
1685471913377722600,0.81972265625,0.0005235987482592463,0.00043633230961859226,0.0009250245057046413
1685471913397721000,0.83972119140625,0.0007679448463022709,0.0016057029133662581,0.0010995573829859495
1685471913417721000,0.85972119140625,-0.00012217304902151227,0.00022689280740451068,0.0005585053586401045
1685471913437721000,0.87972119140625,0.0007679448463022709,0.0015358896926045418,0.0014486232539638877
1685471913457721000,0.89972119140625,0.00094247778179124,0.0003316125657875091,0.00019198621157556772
1685471913477722600,0.91972265625,-0.00031415926059708,0.001518436474725604,0.001658062799833715
1685471913497722600,0.93972265625,0.00062831852119416,0.00015707963029854,0.0004886921960860491
1685471913517721000,0.95972119140625,0.00031415926059708,0.00010471975838299841,0.00008726646046852693
1685471913537721000,0.97972119140625,0.0014486232539638877,0.0012217304902151227,0.0013788101496174932
1685471913557721000,0.99972119140625,0.00031415926059708,-0.00022689280740451068,0.002007128670811653
1685471913577721000,1.01972119140625,0.00045378561480902135,0.0013788101496174932,0.001029744278639555
1685471913597722600,1.03972265625,0.00047123889089562,0.0005934119690209627,0.0006457717972807586
1685471913617722600,1.05972265625,0.0003665191470645368,0.0004886921960860491,0.0013613568153232336
1685471913637721000,1.07972119140625,0.0005585053586401045,0.00045378561480902135,-0.000052359879191499203
1685471913657721000,1.09972119140625,0.0003665191470645368,0.001117010717280209,0.0026354470755904913
1685471913677721000,1.11972119140625,0.00022689280740451068,0.0008901178953237832,-0.00027925267932005227
1685471913697721000,1.13972119140625,0.0005410520825535059,0.00024434609804302454,0.0007504915702156723
1685471913717721000,1.15972119140625,0.0006457717972807586,0.000017453292457503267,0.0005934119690209627
1685471913737722600,1.17972265625,0.0010122909443452954,0.0006806784076616168,0.002007128670811653
1685471913757722600,1.19972265625,0.0007679448463022709,0.00062831852119416,0.0014137167017906904
1685471913777722600,1.21972265625,0.0007853981805965304,0.00020943951676599681,0.0007679448463022709
1685471913797721000,1.23972119140625,0.00047123889089562,0.0014486232539638877,0.0017976891249418259
1685471913817721000,1.25972119140625,0.0010821041651070118,0.0006108652451075613,0.00062831852119416
1685471913837719300,1.27971923828125,0.00029670598451048136,0.0003490658418741077,0.00031415926059708
1685471913857721000,1.29972119140625,0.0003665191470645368,-0.00020943951676599681,-0.00043633230961859226
1685471913877721000,1.31972119140625,0.0006108652451075613,0.0008552113431505859,0
1685471913897721000,1.33972119140625,0.0005934119690209627,0.00205948855727911,0.00188495556358248
1685471913917721000,1.35972119140625,0.00012217304902151227,-0.00022689280740451068,0.0006632251315750182
1685471913937721000,1.37972119140625,-0.00024434609804302454,0.0008726646192371845,0.0011519172694534063
1685471913957721000,1.39972119140625,0.00029670598451048136,0.0016929693520069122,0.0015358896926045418
1685471913977721000,1.41972119140625,0.0008552113431505859,0.00040142572834156454,0.0006806784076616168
1685471913997721000,1.43972119140625,0.001117010717280209,0.0003490658418741077,0.0006108652451075613
1685471914017721000,1.45972119140625,-0.000017453292457503267,0.00047123889089562,0.0011693706037476659
1685471914037721000,1.47972119140625,0.00062831852119416,0.00038397242315113544,0.00188495556358248
1685471914057721000,1.49972119140625,0.0005585053586401045,0.002251474652439356,0.0013089969288557768
1685471914077721000,1.51972119140625,0.0007679448463022709,0.00019198621157556772,0.0011344640515744686
1685471914097721000,1.53972119140625,0.0005410520825535059,0.0023561944253742695,0.0014660765882581472
1685471914117721000,1.55972119140625,0.00031415926059708,0.0005235987482592463,0.0011868239380419254
1685471914137721000,1.57972119140625,0.001343903481028974,0.00043633230961859226,0.00031415926059708
1685471914157721000,1.59972119140625,0.00031415926059708,-0.0003316125657875091,-0.00017453292093705386
1685471914177721000,1.61972119140625,0.0003665191470645368,0.00013962633966002613,0.0019896754529327154
1685471914197721000,1.63972119140625,0.0011344640515744686,0.0026179938577115536,0.0022165682166814804
1685471914217721000,1.65972119140625,0.0009075712296180427,0,0.0005759586347267032
1685471914237721000,1.67972119140625,0.0012915435945615172,0.0006632251315750182,0.001343903481028974
1685471914257721000,1.69972119140625,0.0007679448463022709,0.00043633230961859226,0.0008203047327697277
1685471914277722600,1.71972265625,0.0008203047327697277,0.00038397242315113544,0.00188495556358248
1685471914297721000,1.73972119140625,0.00020943951676599681,0.0010471974965184927,0.002251474652439356
1685471914317721000,1.75972119140625,0.0003665191470645368,0.00015707963029854,0.00062831852119416
1685471914337722600,1.77972265625,0.0015009831404313445,0.00008726646046852693,0.0015358896926045418
1685471914357721000,1.79972119140625,0.00031415926059708,0.002949606394395232,0.0027052604127675295
1685471914377721000,1.81972119140625,0.00038397242315113544,0.0013962633674964309,0.0020769417751580477
1685471914397721000,1.83972119140625,0.00017453292093705386,0.0012391837080940604,0.00143117003608495
1685471914417721000,1.85972119140625,0.0009075712296180427,0.0008203047327697277,0.0009948377264663577
1685471914437721000,1.87972119140625,0.0004886921960860491,-0.00041887903353199363,0.0014660765882581472
1685471914457721000,1.89972119140625,0.0003490658418741077,0.001029744278639555,0.0007504915702156723
1685471914477721000,1.91972119140625,0.00031415926059708,0.0010122909443452954,0.00143117003608495
1685471914497721000,1.93972119140625,0.00038397242315113544,0.0016755161341279745,0.0014137167017906904
1685471914517721000,1.95972119140625,0.0003490658418741077,0.00024434609804302454,0.000017453292457503267
1685471914537721000,1.97972119140625,0.0006457717972807586,0.0012391837080940604,0.0008203047327697277
1685471914557721000,1.99972119140625,0.0008552113431505859,-0.0008901178953237832,0.0007330382941290736
1685471914577721000,2.01972119140625,0.0014486232539638877,0.0008552113431505859,0.0021816615480929613
1685471914597721000,2.03972119140625,0.00062831852119416,0.0006457717972807586,0.00094247778179124
1685471914617721000,2.05972119140625,0.0003665191470645368,0.00062831852119416,0.00062831852119416
1685471914637721000,2.07972119140625,0.00094247778179124,0.0008552113431505859,0.0008726646192371845
1685471914657721000,2.09972119140625,0.00031415926059708,0.0005759586347267032,0.0010471974965184927
1685471914677721000,2.11972119140625,0.0013264502631500363,0.0010995573829859495,0.002234021434560418
1685471914697721000,2.13972119140625,0.0008377580670639873,0.0005061454721726477,0.00040142572834156454
1685471914717721000,2.15972119140625,0.00019198621157556772,-0.00008726646046852693,0
1685471914737721000,2.17972119140625,0.00038397242315113544,0.0012740903766825795,0.0009250245057046413
1685471914757721000,2.19972119140625,0.0008377580670639873,0.00094247778179124,0.0006981316837482154
1685471914777721000,2.21972119140625,0.0006108652451075613,0.00017453292093705386,0.0019547687843441963
1685471914797721000,2.23972119140625,0.0008726646192371845,0.0009773843921720982,0.0016755161341279745
1685471914817721000,2.25972119140625,0.00013962633966002613,0.0005410520825535059,0.0013962633674964309
1685471914837721000,2.27972119140625,0.0016929693520069122,-0.00029670598451048136,0.0009599310578778386
1685471914857721000,2.29972119140625,0.001483529806137085,0.0007679448463022709,0.00010471975838299841
1685471914877721000,2.31972119140625,0.00013962633966002613,0.0021293016616255045,0.0024085543118417263
1685471914897721000,2.33972119140625,0.0007679448463022709,0.00047123889089562,-0.00029670598451048136
1685471914917721000,2.35972119140625,0.0007679448463022709,0.0007330382941290736,0.00143117003608495
1685471914937721000,2.37972119140625,0.00041887903353199363,0.0021816615480929613,0.0016057029133662581
1685471914957721000,2.39972119140625,0.0003316125657875091,0.0010995573829859495,0.00022689280740451068
1685471914977722600,2.41972265625,0.00031415926059708,0.0006457717972807586,0.0009948377264663577
1685471914997721000,2.43972119140625,0.00062831852119416,0.0008901178953237832,0.001483529806137085
1685471915017721000,2.45972119140625,0.0009773843921720982,0.0008552113431505859,0.0009773843921720982
1685471915037721000,2.47972119140625,0.0005585053586401045,0.0010646508308127522,0.0028623400721699
1685471915057721000,2.49972119140625,0.0006632251315750182,0.0014486232539638877,0.0017976891249418259
1685471915077721000,2.51972119140625,0.0007504915702156723,0.0009599310578778386,0.0008552113431505859
1685471915097721000,2.53972119140625,0.000017453292457503267,0.0023387412074953318,0.0017278759041801095
1685471915117721000,2.55972119140625,0.0007679448463022709,0.0007679448463022709,0.0017627825727686286
1685471915137721000,2.57972119140625,0.0008726646192371845,0.000052359879191499203,0.0016406094655394554
1685471915157721000,2.59972119140625,0.00031415926059708,-0.00006981316983001307,0.0011693706037476659
1685471915177721000,2.61972119140625,0.0005934119690209627,0.0008028514566831291,0.0013962633674964309
1685471915197721000,2.63972119140625,0.00031415926059708,0.0023038345389068127,0.0013788101496174932
1685471915217721000,2.65972119140625,0.0005585053586401045,0.001483529806137085,0.0028623400721699
1685471915237721000,2.67972119140625,0.00019198621157556772,0.0021118484437465668,0.0016057029133662581
1685471915257721000,2.69972119140625,0.001483529806137085,0.0003316125657875091,0.0017976891249418259
1685471915277721000,2.71972119140625,0.0006806784076616168,0.00047123889089562,0.0015882495790719986
1685471915297721000,2.73972119140625,0.00038397242315113544,0.0003316125657875091,0.001343903481028974
1685471915317721000,2.75972119140625,0.0009948377264663577,0.0013089969288557768,0.0019896754529327154
1685471915337721000,2.77972119140625,0.0003316125657875091,-0.00017453292093705386,0.0007853981805965304
1685471915357721000,2.79972119140625,0.0003316125657875091,0.0012217304902151227,0.0024958208668977022
1685471915377721000,2.81972119140625,0.0009075712296180427,0.0005759586347267032,0.00027925267932005227
1685471915397721000,2.83972119140625,0.0005235987482592463,0.00020943951676599681,-0.00041887903353199363
1685471915417721000,2.85972119140625,0.00012217304902151227,0.0013089969288557768,0.000052359879191499203
1685471915437721000,2.87972119140625,0.0006457717972807586,0.0008377580670639873,0.0006632251315750182
1685471915457721000,2.89972119140625,0.0003490658418741077,0.0008028514566831291,0.00029670598451048136
1685471915477721000,2.91972119140625,0.00008726646046852693,0.0011693706037476659,0.0010471974965184927
1685471915497721000,2.93972119140625,0.00031415926059708,0.0018325956771150231,0.000715585018042475
1685471915517721000,2.95972119140625,0.00038397242315113544,0.0007504915702156723,0.0008377580670639873
1685471915537721000,2.97972119140625,0.0009948377264663577,0.0008377580670639873,0.0009599310578778386
1685471915557721000,2.99972119140625,0.0003316125657875091,0.000715585018042475,-0.00038397242315113544
1685471915577721000,3.01972119140625,0.0010821041651070118,0.0005934119690209627,0.000017453292457503267
1685471915597721000,3.03972119140625,0.00038397242315113544,0.0008377580670639873,0.0026354470755904913
1685471915617721000,3.05972119140625,0.0010646508308127522,0.0005934119690209627,0.00094247778179124
1685471915637721000,3.07972119140625,0.0006457717972807586,0.00031415926059708,0.0007330382941290736
1685471915657721000,3.09972119140625,0.0009599310578778386,0.0013264502631500363,0.00040142572834156454
1685471915677721000,3.11972119140625,0.00029670598451048136,0.0015009831404313445,0.0021642083302140236
1685471915697721000,3.13972119140625,0.00062831852119416,0.00038397242315113544,0.0006108652451075613
1685471915717721000,3.15972119140625,-0.00020943951676599681,0.0014660765882581472,0.0009948377264663577
1685471915737721000,3.17972119140625,0.00038397242315113544,0.0011519172694534063,0.0010646508308127522
1685471915757721000,3.19972119140625,-0.0003490658418741077,0.00040142572834156454,-0.00010471975838299841
1685471915777721000,3.21972119140625,0.00010471975838299841,0.0007853981805965304,0.00027925267932005227
1685471915797721000,3.23972119140625,0.0011519172694534063,-0.0006457717972807586,0.00047123889089562
1685471915817721000,3.25972119140625,0.00020943951676599681,-0.00020943951676599681,0.00094247778179124
1685471915837721000,3.27972119140625,-0.00031415926059708,-0.00019198621157556772,0.0019024088978767395
1685471915857721000,3.29972119140625,-0.00006981316983001307,0.0007679448463022709,-0.00031415926059708
1685471915877721000,3.31972119140625,0.00040142572834156454,-0.00027925267932005227,-0.0006108652451075613
1685471915897721000,3.33972119140625,-0.00012217304902151227,-0.00043633230961859226,0.0009250245057046413
1685471915917721000,3.35972119140625,-0.000052359879191499203,-0.0008377580670639873,-0.0005061454721726477
1685471915937721000,3.37972119140625,0.0003665191470645368,0.0009948377264663577,0.00006981316983001307
1685471915957721000,3.39972119140625,-0.0010821041651070118,-0.00017453292093705386,0.000017453292457503267
1685471915977721000,3.41972119140625,0,0.00047123889089562,0.00031415926059708
1685471915997721000,3.43972119140625,-0.00029670598451048136,0,0.0015358896926045418
1685471916017721000,3.45972119140625,-0.00041887903353199363,-0.0014660765882581472,-0.00012217304902151227
1685471916037721000,3.47972119140625,0.0005934119690209627,0.00041887903353199363,0.0005759586347267032
1685471916057721000,3.49972119140625,-0.00019198621157556772,0,-0.00094247778179124
1685471916077721000,3.51972119140625,0.0005759586347267032,0.0014660765882581472,0.0017802357906475663
1685471916097721000,3.53972119140625,0.00013962633966002613,0.000017453292457503267,-0.00062831852119416
1685471916117721000,3.55972119140625,-0.00017453292093705386,0,-0.0008552113431505859
1685471916137721000,3.57972119140625,0.0005410520825535059,-0.0008552113431505859,-0.00006981316983001307
1685471916157721000,3.59972119140625,0.00003490658491500653,-0.0009599310578778386,-0.00024434609804302454
1685471916177721000,3.61972119140625,-0.00020943951676599681,-0.0006806784076616168,-0.00003490658491500653
1685471916197721000,3.63972119140625,-0.00024434609804302454,-0.00024434609804302454,-0.0010122909443452954
1685471916217721000,3.65972119140625,0.00038397242315113544,-0.00062831852119416,-0.00008726646046852693
1685471916237721000,3.67972119140625,0.0003490658418741077,-0.0005585053586401045,-0.00040142572834156454
1685471916257721000,3.69972119140625,0.0006632251315750182,0.0007679448463022709,0.00031415926059708
1685471916277721000,3.71972119140625,-0.00027925267932005227,-0.0009773843921720982,-0.0009773843921720982
1685471916297721000,3.73972119140625,0.0002617993741296232,-0.0003665191470645368,-0.00017453292093705386
1685471916317721000,3.75972119140625,-0.00029670598451048136,-0.0008028514566831291,-0.00040142572834156454
1685471916337721000,3.77972119140625,-0.000017453292457503267,-0.00019198621157556772,-0.0006806784076616168
1685471916357721000,3.79972119140625,0.0004886921960860491,-0.001343903481028974,-0.0017278759041801095
1685471916377721000,3.81972119140625,0,0.0009075712296180427,-0.000715585018042475
1685471916397721000,3.83972119140625,-0.00047123889089562,0.00043633230961859226,-0.0005061454721726477
1685471916417721000,3.85972119140625,0.00013962633966002613,-0.00041887903353199363,-0.0013089969288557768
1685471916437721000,3.87972119140625,-0.00027925267932005227,-0.00017453292093705386,-0.0006632251315750182
1685471916457721000,3.89972119140625,-0.00045378561480902135,-0.0007679448463022709,-0.0010995573829859495
1685471916477721000,3.91972119140625,0.00012217304902151227,-0.00003490658491500653,-0.00008726646046852693
1685471916497721000,3.93972119140625,0.00041887903353199363,0.0007853981805965304,0.00006981316983001307
1685471916517721000,3.95972119140625,-0.00022689280740451068,0.00022689280740451068,-0.000017453292457503267
1685471916537721000,3.97972119140625,-0.00029670598451048136,0.00045378561480902135,-0.0008726646192371845
1685471916557721000,3.99972119140625,0.00024434609804302454,-0.00022689280740451068,-0.0010471974965184927
1685471916577721000,4.01972119140625,-0.0006457717972807586,-0.00043633230961859226,-0.00017453292093705386
1685471916597721000,4.03972119140625,0.00022689280740451068,0.0007504915702156723,-0.00024434609804302454
1685471916617721000,4.05972119140625,0.0013264502631500363,-0.0008552113431505859,0.0003316125657875091
1685471916637721000,4.07972119140625,0.00045378561480902135,-0.00013962633966002613,-0.00019198621157556772
1685471916657721000,4.09972119140625,-0.0005410520825535059,0.00015707963029854,-0.00003490658491500653
1685471916677721000,4.11972119140625,-0.00017453292093705386,0.0012217304902151227,0.00047123889089562
1685471916697721000,4.13972119140625,0,-0.0003665191470645368,-0.0008203047327697277
1685471916717721000,4.15972119140625,0.0006632251315750182,-0.00043633230961859226,-0.0007504915702156723
1685471916737721000,4.17972119140625,-0.00006981316983001307,0.0004886921960860491,-0.00094247778179124
1685471916757721000,4.19972119140625,-0.0002617993741296232,-0.0009075712296180427,-0.0006108652451075613
1685471916777721000,4.21972119140625,-0.00029670598451048136,0.00012217304902151227,-0.00062831852119416
1685471916797722600,4.23972265625,-0.0005410520825535059,0.00045378561480902135,-0.0010995573829859495
1685471916817721000,4.25972119140625,-0.000052359879191499203,-0.00006981316983001307,0.0005235987482592463
1685471916837721000,4.27972119140625,-0.00003490658491500653,0.00003490658491500653,-0.0008377580670639873
1685471916857721000,4.29972119140625,0.00029670598451048136,-0.00027925267932005227,-0.00041887903353199363
1685471916877721000,4.31972119140625,-0.000052359879191499203,-0.00019198621157556772,-0.0010821041651070118
1685471916897721000,4.33972119140625,0,-0.0009599310578778386,-0.001117010717280209
1685471916917721000,4.35972119140625,0,-0.0010995573829859495,0
1685471916937721000,4.37972119140625,0.0005934119690209627,-0.00010471975838299841,-0.0008552113431505859
1685471916957721000,4.39972119140625,0.00047123889089562,0.00012217304902151227,0.00006981316983001307
1685471916977721000,4.41972119140625,0,-0.0013264502631500363,-0.0017278759041801095
1685471916997721000,4.43972119140625,-0.00017453292093705386,-0.0005759586347267032,-0.0007679448463022709
1685471917017721000,4.45972119140625,0.00012217304902151227,-0.0005235987482592463,-0.0003665191470645368
1685471917037721000,4.47972119140625,-0.00015707963029854,-0.0009773843921720982,-0.0009773843921720982
1685471917057721000,4.49972119140625,-0.00031415926059708,-0.0007679448463022709,-0.00041887903353199363
1685471917077721000,4.51972119140625,0.00003490658491500653,0.00024434609804302454,-0.00062831852119416
1685471917097721000,4.53972119140625,0.00019198621157556772,-0.0011693706037476659,0.00017453292093705386
1685471917117721000,4.55972119140625,0.00031415926059708,-0.00040142572834156454,-0.0008552113431505859
1685471917137721000,4.57972119140625,0.0013264502631500363,-0.0003316125657875091,-0.0007330382941290736
1685471917157721000,4.59972119140625,-0.00006981316983001307,0.00038397242315113544,-0.00047123889089562
1685471917177721000,4.61972119140625,0.00022689280740451068,0.00022689280740451068,0.0007679448463022709
1685471917197721000,4.63972119140625,0.00043633230961859226,-0.00040142572834156454,-0.00041887903353199363
1685471917217721000,4.65972119140625,-0.00015707963029854,-0.0008203047327697277,-0.0013264502631500363
1685471917237721000,4.67972119140625,0.00125663704238832,-0.0012740903766825795,-0.0008552113431505859
1685471917257721000,4.69972119140625,-0.00031415926059708,-0.00040142572834156454,-0.00022689280740451068
1685471917277721000,4.71972119140625,0.00015707963029854,-0.000017453292457503267,-0.00008726646046852693
1685471917297721000,4.73972119140625,-0.00029670598451048136,0.000052359879191499203,-0.0009599310578778386
1685471917317721000,4.75972119140625,0.00043633230961859226,-0.0002617993741296232,-0.00006981316983001307
1685471917337721000,4.77972119140625,-0.00024434609804302454,0.0006806784076616168,-0.0002617993741296232
1685471917357721000,4.79972119140625,-0.00013962633966002613,0.00010471975838299841,0.0002617993741296232
1685471917377721000,4.81972119140625,0.00013962633966002613,-0.0005235987482592463,-0.0011868239380419254
1685471917397721000,4.83972119140625,-0.00013962633966002613,-0.00019198621157556772,-0.00062831852119416
1685471917417721000,4.85972119140625,0.00010471975838299841,-0.0005410520825535059,-0.0011693706037476659
1685471917437721000,4.87972119140625,-0.00029670598451048136,-0.0011344640515744686,-0.00006981316983001307
1685471917457721000,4.89972119140625,0.00003490658491500653,-0.0006108652451075613,-0.0011344640515744686
1685471917477721000,4.91972119140625,-0.00006981316983001307,-0.0007504915702156723,-0.0011344640515744686
1685471917497721000,4.93972119140625,0.00043633230961859226,-0.000715585018042475,-0.00040142572834156454
1685471917517721000,4.95972119140625,0.00013962633966002613,-0.00027925267932005227,-0.00022689280740451068
1685471917537721000,4.97972119140625,-0.000017453292457503267,0.0005061454721726477,-0.0008552113431505859
1685471917557721000,4.99972119140625,0.00012217304902151227,-0.00012217304902151227,-0.0014137167017906904
1685471917577721000,5.01972119140625,0.000052359879191499203,-0.00029670598451048136,-0.0008552113431505859
1685471917597721000,5.03972119140625,0.0009250245057046413,-0.0006981316837482154,-0.00012217304902151227
1685471917617721000,5.05972119140625,-0.00024434609804302454,0.00019198621157556772,-0.00010471975838299841
1685471917637721000,5.07972119140625,-0.00008726646046852693,-0.0006457717972807586,-0.0010646508308127522
1685471917657721000,5.09972119140625,0.00008726646046852693,0.00031415926059708,0
1685471917677721000,5.11972119140625,0,-0.00012217304902151227,-0.00125663704238832
1685471917697721000,5.13972119140625,0.00013962633966002613,-0.0005585053586401045,-0.0007330382941290736
1685471917717721000,5.15972119140625,0.00045378561480902135,0.0003316125657875091,-0.0004886921960860491
1685471917737721000,5.17972119140625,-0.00040142572834156454,-0.0008726646192371845,-0.001483529806137085
1685471917757721000,5.19972119140625,0.00003490658491500653,0.00003490658491500653,-0.0008552113431505859
1685471917777722600,5.21972265625,-0.00020943951676599681,-0.00029670598451048136,0.00006981316983001307
1685471917797721000,5.23972119140625,0,-0.0006981316837482154,-0.0003665191470645368
1685471917817721000,5.25972119140625,0.0006981316837482154,-0.000052359879191499203,0.00006981316983001307
1685471917837721000,5.27972119140625,0.00012217304902151227,0.0003665191470645368,-0.0012391837080940604
1685471917857721000,5.29972119140625,-0.00024434609804302454,-0.0019373154500499368,-0.0007853981805965304
1685471917877721000,5.31972119140625,-0.00029670598451048136,0.00017453292093705386,-0.0005410520825535059
1685471917897721000,5.33972119140625,-0.00040142572834156454,0.00010471975838299841,-0.001029744278639555
1685471917917721000,5.35972119140625,-0.00006981316983001307,-0.0002617993741296232,-0.00038397242315113544
1685471917937721000,5.37972119140625,0.0009599310578778386,0.0006457717972807586,0
1685471917957721000,5.39972119140625,0.00043633230961859226,-0.00017453292093705386,-0.00027925267932005227
1685471917977721000,5.41972119140625,0.00015707963029854,-0.00041887903353199363,-0.001029744278639555
1685471917997721000,5.43972119140625,0.00022689280740451068,0.0008901178953237832,-0.00010471975838299841
1685471918017721000,5.45972119140625,0.00012217304902151227,-0.0008377580670639873,-0.0004886921960860491
1685471918037721000,5.47972119140625,0.00062831852119416,-0.00047123889089562,-0.0006806784076616168
1685471918057721000,5.49972119140625,0.0004886921960860491,-0.0005061454721726477,-0.0016057029133662581
1685471918077721000,5.51972119140625,0,-0.00015707963029854,0.00015707963029854
1685471918097721000,5.53972119140625,-0.00027925267932005227,-0.0005759586347267032,-0.0006806784076616168
1685471918117721000,5.55972119140625,0.00024434609804302454,-0.00017453292093705386,-0.0008552113431505859
1685471918137721000,5.57972119140625,-0.00017453292093705386,-0.00013962633966002613,0.0010995573829859495
1685471918157721000,5.59972119140625,0,0.0003316125657875091,0.0005759586347267032
1685471918177721000,5.61972119140625,0,-0.00006981316983001307,-0.0006457717972807586
1685471918197721000,5.63972119140625,-0.00017453292093705386,-0.000715585018042475,-0.0010995573829859495
1685471918217722600,5.65972265625,0.00020943951676599681,-0.0003316125657875091,-0.0007853981805965304
1685471918237722600,5.67972265625,0.0002617993741296232,-0.0008028514566831291,-0.0013089969288557768
1685471918257721000,5.69972119140625,-0.00003490658491500653,-0.0003490658418741077,-0.0012915435945615172
1685471918277721000,5.71972119140625,-0.00019198621157556772,0.00029670598451048136,0.0005061454721726477
1685471918297721000,5.73972119140625,-0.00019198621157556772,-0.0012042771559208632,-0.0012740903766825795
1685471918317721000,5.75972119140625,0.00006981316983001307,0.00031415926059708,0.0006457717972807586
1685471918337721000,5.77972119140625,0.0003665191470645368,-0.00015707963029854,0.0005759586347267032
1685471918357721000,5.79972119140625,0.00013962633966002613,-0.00010471975838299841,-0.00038397242315113544
1685471918377721000,5.81972119140625,-0.0002617993741296232,-0.0006981316837482154,-0.00024434609804302454
1685471918397721000,5.83972119140625,0.00045378561480902135,0.00017453292093705386,-0.0003665191470645368
1685471918417721000,5.85972119140625,0.0008726646192371845,-0.0005061454721726477,-0.00015707963029854
1685471918437721000,5.87972119140625,0.00015707963029854,0.0003665191470645368,-0.0005759586347267032
1685471918457721000,5.89972119140625,-0.00006981316983001307,0.0009075712296180427,-0.00047123889089562
1685471918477721000,5.91972119140625,0.0005061454721726477,0.0007853981805965304,-0.0005934119690209627
1685471918497722600,5.93972265625,0.000017453292457503267,0.00027925267932005227,0.0009250245057046413
1685471918517721000,5.95972119140625,-0.00013962633966002613,-0.0008726646192371845,0.00003490658491500653
1685471918537721000,5.97972119140625,0.00020943951676599681,-0.00010471975838299841,0.0005585053586401045
1685471918557721000,5.99972119140625,-0.00017453292093705386,0.0008901178953237832,-0.00017453292093705386
1685471918577721000,6.01972119140625,0.0003665191470645368,-0.00038397242315113544,-0.00125663704238832
1685471918597721000,6.03972119140625,0.00062831852119416,-0.0006981316837482154,-0.00038397242315113544
1685471918617721000,6.05972119140625,0.0011868239380419254,-0.0011868239380419254,-0.00029670598451048136
1685471918637722600,6.07972265625,0.00012217304902151227,-0.00062831852119416,-0.0006457717972807586
1685471918657721000,6.09972119140625,-0.00012217304902151227,-0.00019198621157556772,-0.00027925267932005227
1685471918677721000,6.11972119140625,0.0007504915702156723,-0.00020943951676599681,-0.0007504915702156723
1685471918697721000,6.13972119140625,-0.00027925267932005227,-0.00006981316983001307,-0.000052359879191499203
1685471918717721000,6.15972119140625,0.0005410520825535059,-0.0003665191470645368,0.00040142572834156454
1685471918737721000,6.17972119140625,0.000052359879191499203,0.00013962633966002613,-0.0012042771559208632
1685471918757722600,6.19972265625,0.0003665191470645368,0.0009948377264663577,0.0005061454721726477
1685471918777721000,6.21972119140625,0.000052359879191499203,0.00038397242315113544,-0.00062831852119416
1685471918797722600,6.23972265625,-0.00008726646046852693,-0.00015707963029854,-0.00031415926059708
1685471918817721000,6.25972119140625,0.00062831852119416,-0.00024434609804302454,-0.0008028514566831291
1685471918837721000,6.27972119140625,0.000052359879191499203,-0.001518436474725604,-0.0006457717972807586
1685471918857721000,6.29972119140625,-0.00020943951676599681,-0.0008726646192371845,-0.000017453292457503267
1685471918877721000,6.31972119140625,0.00038397242315113544,-0.00015707963029854,-0.0006806784076616168
1685471918897721000,6.33972119140625,-0.00003490658491500653,0.0011693706037476659,-0.00027925267932005227
1685471918917721000,6.35972119140625,-0.0009250245057046413,0.0012217304902151227,-0.00006981316983001307
1685471918937722600,6.37972265625,0.001029744278639555,0.000017453292457503267,-0.0007330382941290736
1685471918957721000,6.39972119140625,0.0002617993741296232,-0.0005934119690209627,0.000715585018042475
1685471918977721000,6.41972119140625,0.00029670598451048136,0.00003490658491500653,0.0005585053586401045
1685471918997721000,6.43972119140625,-0.00024434609804302454,-0.00019198621157556772,-0.0006457717972807586
1685471919017721000,6.45972119140625,0.00045378561480902135,0.00010471975838299841,0.00041887903353199363
1685471919037721000,6.47972119140625,-0.00008726646046852693,-0.000017453292457503267,0.000017453292457503267
1685471919057721000,6.49972119140625,0.00019198621157556772,0.0007679448463022709,0.00038397242315113544
1685471919077721000,6.51972119140625,-0.00020943951676599681,0.00012217304902151227,-0.00017453292093705386
1685471919097721000,6.53972119140625,-0.0003490658418741077,-0.00041887903353199363,-0.0011519172694534063
1685471919117721000,6.55972119140625,-0.00022689280740451068,0.0003316125657875091,-0.00031415926059708
1685471919137721000,6.57972119140625,0.00019198621157556772,0.000715585018042475,0.00003490658491500653
1685471919157721000,6.59972119140625,-0.0003665191470645368,-0.0003665191470645368,-0.0005235987482592463
1685471919177721000,6.61972119140625,-0.000052359879191499203,0.0008028514566831291,0.0006806784076616168
1685471919197721000,6.63972119140625,0.00008726646046852693,0.00024434609804302454,0.00003490658491500653
1685471919217721000,6.65972119140625,-0.00015707963029854,-0.0004886921960860491,-0.00041887903353199363
1685471919237721000,6.67972119140625,-0.00003490658491500653,0.0009773843921720982,0.0013962633674964309
1685471919257721000,6.69972119140625,-0.0006457717972807586,-0.0003316125657875091,0.000017453292457503267
1685471919277721000,6.71972119140625,-0.00012217304902151227,-0.00013962633966002613,-0.0009075712296180427
1685471919297721000,6.73972119140625,-0.00006981316983001307,0.00012217304902151227,-0.00041887903353199363
1685471919317721000,6.75972119140625,0.0002617993741296232,0.00040142572834156454,0.0015009831404313445
1685471919337721000,6.77972119140625,0.00008726646046852693,0.00017453292093705386,-0.00008726646046852693
1685471919357721000,6.79972119140625,-0.0003316125657875091,-0.0005759586347267032,0.00031415926059708
1685471919377721000,6.81972119140625,0.0007679448463022709,0.00045378561480902135,0.00013962633966002613
1685471919397721000,6.83972119140625,0.0005235987482592463,-0.0005934119690209627,-0.0013788101496174932
1685471919417721000,6.85972119140625,-0.00012217304902151227,0.00031415926059708,-0.00041887903353199363
1685471919437721000,6.87972119140625,0,-0.00045378561480902135,-0.0009075712296180427
1685471919457721000,6.89972119140625,-0.0006108652451075613,-0.00043633230961859226,0.00006981316983001307
1685471919477721000,6.91972119140625,-0.0003490658418741077,-0.0008028514566831291,-0.0012042771559208632
1685471919497721000,6.93972119140625,-0.00029670598451048136,0.00003490658491500653,-0.00045378561480902135
1685471919517721000,6.95972119140625,-0.00017453292093705386,0.0016929693520069122,0.00027925267932005227
1685471919537721000,6.97972119140625,-0.0003490658418741077,-0.00041887903353199363,-0.0013264502631500363
1685471919557721000,6.99972119140625,-0.00012217304902151227,-0.0003316125657875091,-0.00043633230961859226
1685471919577721000,7.01972119140625,-0.000017453292457503267,-0.0005235987482592463,-0.00006981316983001307
1685471919597721000,7.03972119140625,0.0010122909443452954,-0.00031415926059708,0
1685471919617721000,7.05972119140625,-0.0003490658418741077,-0.0005410520825535059,0.00013962633966002613
1685471919637721000,7.07972119140625,-0.00003490658491500653,-0.00013962633966002613,-0.00029670598451048136
1685471919657721000,7.09972119140625,-0.0003490658418741077,0.0003490658418741077,0.0004886921960860491
1685471919677721000,7.11972119140625,0.0005410520825535059,-0.0007853981805965304,0.000715585018042475
1685471919697721000,7.13972119140625,0.0004886921960860491,-0.0005410520825535059,-0.0007330382941290736
1685471919717721000,7.15972119140625,0.00031415926059708,-0.00027925267932005227,0.0003665191470645368
1685471919737721000,7.17972119140625,-0.00017453292093705386,0.000052359879191499203,-0.0006632251315750182
1685471919757721000,7.19972119140625,0.00008726646046852693,0.00013962633966002613,-0.0003316125657875091
1685471919777721000,7.21972119140625,0.000017453292457503267,-0.00006981316983001307,0.00029670598451048136
1685471919797721000,7.23972119140625,0.000017453292457503267,0.00062831852119416,0.00029670598451048136
1685471919817721000,7.25972119140625,0.00022689280740451068,-0.0002617993741296232,0.00038397242315113544
1685471919837721000,7.27972119140625,0.00041887903353199363,-0.00027925267932005227,-0.00027925267932005227
1685471919857721000,7.29972119140625,-0.000052359879191499203,0.0008552113431505859,-0.00043633230961859226
1685471919877721000,7.31972119140625,0.0008901178953237832,0.00031415926059708,-0.00038397242315113544
1685471919897721000,7.33972119140625,0.0003665191470645368,-0.000017453292457503267,0.00013962633966002613
1685471919917721000,7.35972119140625,0.0008028514566831291,0.00015707963029854,0.0008377580670639873
1685471919937721000,7.37972119140625,0.0004886921960860491,-0.00010471975838299841,-0.00020943951676599681
1685471919957721000,7.39972119140625,0.00043633230961859226,-0.0003490658418741077,-0.0010471974965184927
1685471919977721000,7.41972119140625,0.0005410520825535059,-0.0005934119690209627,-0.0009599310578778386
1685471919997721000,7.43972119140625,0.00015707963029854,-0.0008028514566831291,-0.0008726646192371845
1685471920017721000,7.45972119140625,-0.0006632251315750182,0.00015707963029854,0.00010471975838299841
1685471920037721000,7.47972119140625,-0.000017453292457503267,-0.000017453292457503267,0.0005759586347267032
1685471920057721000,7.49972119140625,-0.0003490658418741077,-0.0005759586347267032,-0.00027925267932005227
1685471920077721000,7.51972119140625,-0.00041887903353199363,-0.00022689280740451068,-0.0007679448463022709
1685471920097722600,7.53972265625,0.0008028514566831291,-0.000052359879191499203,0.0002617993741296232
1685471920117721000,7.55972119140625,0.0003665191470645368,-0.00062831852119416,0.0005235987482592463
1685471920137721000,7.57972119140625,0.00008726646046852693,0.000017453292457503267,-0.0008726646192371845
1685471920157721000,7.59972119140625,-0.0005934119690209627,0.0010995573829859495,-0.00003490658491500653
1685471920177721000,7.61972119140625,0.0002617993741296232,-0.000052359879191499203,-0.00041887903353199363
1685471920197721000,7.63972119140625,-0.00003490658491500653,-0.0007330382941290736,-0.0008726646192371845
1685471920217721000,7.65972119140625,-0.00031415926059708,0.0003490658418741077,-0.000715585018042475
1685471920237721000,7.67972119140625,0.00017453292093705386,0.0006981316837482154,-0.000017453292457503267
1685471920257721000,7.69972119140625,0.00094247778179124,-0.00010471975838299841,0
1685471920277721000,7.71972119140625,-0.00015707963029854,0.00013962633966002613,0.001343903481028974
1685471920297721000,7.73972119140625,0.00008726646046852693,-0.00015707963029854,0.0003490658418741077
1685471920317721000,7.75972119140625,0.00017453292093705386,0.00006981316983001307,-0.0008552113431505859
1685471920337721000,7.77972119140625,-0.000052359879191499203,-0.0005235987482592463,0.00040142572834156454
1685471920357721000,7.79972119140625,-0.00003490658491500653,-0.00047123889089562,0.00022689280740451068
1685471920377721000,7.81972119140625,0.00041887903353199363,-0.00008726646046852693,0.000052359879191499203
1685471920397721000,7.83972119140625,0.00027925267932005227,0.00019198621157556772,-0.0007504915702156723
1685471920417721000,7.85972119140625,-0.0003665191470645368,0.0003316125657875091,0.0007504915702156723
1685471920437721000,7.87972119140625,0.00006981316983001307,-0.00017453292093705386,-0.0007853981805965304
1685471920457721000,7.89972119140625,-0.00031415926059708,-0.0008901178953237832,-0.0010122909443452954
1685471920477721000,7.91972119140625,-0.00020943951676599681,-0.00040142572834156454,-0.0006108652451075613
1685471920497721000,7.93972119140625,0.00022689280740451068,-0.0003490658418741077,0.00031415926059708
1685471920517721000,7.95972119140625,0,-0.00031415926059708,-0.00017453292093705386
1685471920537721000,7.97972119140625,0.00019198621157556772,-0.00045378561480902135,-0.00041887903353199363
1685471920557721000,7.99972119140625,0.00006981316983001307,-0.000052359879191499203,-0.00015707963029854
1685471920577721000,8.01972119140625,0.00062831852119416,-0.00024434609804302454,-0.00008726646046852693
1685471920597721000,8.03972119140625,0.00031415926059708,-0.0003316125657875091,-0.0010646508308127522
1685471920617721000,8.05972119140625,0.00015707963029854,0.00010471975838299841,-0.0003316125657875091
1685471920637721000,8.07972119140625,-0.00008726646046852693,-0.00015707963029854,-0.00017453292093705386
1685471920657721000,8.09972119140625,-0.00012217304902151227,-0.0004886921960860491,-0.0007330382941290736
1685471920677721000,8.11972119140625,0,0.0010821041651070118,0.0006632251315750182
1685471920697721000,8.13972119140625,-0.0003490658418741077,0.00040142572834156454,0.0008028514566831291
1685471920717721000,8.15972119140625,0.00029670598451048136,-0.00043633230961859226,-0.001343903481028974
1685471920737721000,8.17972119140625,-0.000052359879191499203,-0.00017453292093705386,-0.00031415926059708
1685471920757721000,8.19972119140625,-0.00020943951676599681,0.00024434609804302454,0.00010471975838299841
1685471920777721000,8.21972119140625,-0.0008552113431505859,-0.00020943951676599681,-0.00094247778179124
1685471920797721000,8.23972119140625,0.00003490658491500653,-0.0003490658418741077,-0.0007679448463022709
1685471920817721000,8.25972119140625,-0.00015707963029854,-0.00006981316983001307,0.00027925267932005227
1685471920837721000,8.27972119140625,0.00008726646046852693,0.00041887903353199363,0.0006981316837482154
1685471920857721000,8.29972119140625,-0.00012217304902151227,-0.00040142572834156454,-0.000017453292457503267
1685471920877721000,8.31972119140625,0.000052359879191499203,0.0006806784076616168,0.00020943951676599681
1685471920897721000,8.33972119140625,0.00041887903353199363,-0.0011344640515744686,-0.0004886921960860491
1685471920917721000,8.35972119140625,0.00062831852119416,-0.00027925267932005227,-0.0005759586347267032
1685471920937721000,8.37972119140625,-0.0007853981805965304,-0.0006981316837482154,-0.0009773843921720982
1685471920957721000,8.39972119140625,0,0.0008377580670639873,-0.000017453292457503267
1685471920977721000,8.41972119140625,0.00013962633966002613,0,0.00038397242315113544
1685471920997721000,8.43972119140625,0.000017453292457503267,-0.00010471975838299841,-0.0003665191470645368
1685471921017721000,8.45972119140625,0.00008726646046852693,0.00043633230961859226,-0.00041887903353199363
1685471921037721000,8.47972119140625,0.00031415926059708,-0.00062831852119416,-0.0012391837080940604
1685471921057721000,8.49972119140625,-0.00020943951676599681,-0.00006981316983001307,-0.0011868239380419254
1685471921077721000,8.51972119140625,-0.0002617993741296232,-0.0009250245057046413,-0.0009599310578778386
1685471921097721000,8.53972119140625,0.00006981316983001307,-0.0005410520825535059,-0.0008203047327697277
1685471921117721000,8.55972119140625,0.0005585053586401045,-0.0007853981805965304,-0.0011344640515744686
1685471921137721000,8.57972119140625,0.00003490658491500653,-0.00022689280740451068,-0.00015707963029854
1685471921157721000,8.59972119140625,0,0.00041887903353199363,-0.000052359879191499203
1685471921177721000,8.61972119140625,-0.000017453292457503267,0.00038397242315113544,-0.00017453292093705386
1685471921197721000,8.63972119140625,-0.00006981316983001307,0.0007853981805965304,-0.0004886921960860491
1685471921217721000,8.65972119140625,-0.00041887903353199363,0.0003665191470645368,0.0012740903766825795
1685471921237721000,8.67972119140625,-0.00003490658491500653,0.0003490658418741077,-0.00022689280740451068
1685471921257721000,8.69972119140625,-0.0005585053586401045,-0.00045378561480902135,-0.00043633230961859226
1685471921277721000,8.71972119140625,-0.00012217304902151227,-0.00003490658491500653,0.0007330382941290736
1685471921297721000,8.73972119140625,0.00027925267932005227,0.0007853981805965304,0.0009075712296180427
1685471921317721000,8.75972119140625,0.0008377580670639873,0,0.0006632251315750182
1685471921337721000,8.77972119140625,-0.0005061454721726477,0.00024434609804302454,-0.0003665191470645368
1685471921357721000,8.79972119140625,-0.0005585053586401045,0.0003316125657875091,-0.0005061454721726477
1685471921377721000,8.81972119140625,-0.0003490658418741077,0.00024434609804302454,-0.00020943951676599681
1685471921397721000,8.83972119140625,0.00010471975838299841,-0.0006981316837482154,-0.0010122909443452954
1685471921417721000,8.85972119140625,-0.0003665191470645368,-0.00031415926059708,-0.00040142572834156454
1685471921437721000,8.87972119140625,0.00022689280740451068,-0.000017453292457503267,-0.0012217304902151227
1685471921457721000,8.89972119140625,0.00038397242315113544,-0.0007679448463022709,0.0003665191470645368
1685471921477721000,8.91972119140625,-0.0003665191470645368,0.0011519172694534063,0.0015533430268988013
1685471921497721000,8.93972119140625,0.00031415926059708,-0.0005061454721726477,-0.0008552113431505859
1685471921517721000,8.95972119140625,0.0002617993741296232,0.00027925267932005227,-0.00013962633966002613
1685471921537721000,8.97972119140625,-0.0002617993741296232,-0.00043633230961859226,-0.0009948377264663577
1685471921557721000,8.99972119140625,-0.00031415926059708,0.0007853981805965304,0.000017453292457503267
1685471921577721000,9.01972119140625,-0.0003490658418741077,0.0006108652451075613,0.0005934119690209627
1685471921597721000,9.03972119140625,0.00043633230961859226,0.00031415926059708,0.00022689280740451068
1685471921617721000,9.05972119140625,0.0005235987482592463,-0.0005235987482592463,-0.00125663704238832
1685471921637721000,9.07972119140625,-0.00019198621157556772,-0.00015707963029854,0.0013613568153232336
1685471921657721000,9.09972119140625,0.00047123889089562,-0.00010471975838299841,-0.00024434609804302454
1685471921677721000,9.11972119140625,0.00041887903353199363,-0.0003490658418741077,-0.0008552113431505859
1685471921697721000,9.13972119140625,-0.00013962633966002613,0.0005585053586401045,0.00022689280740451068
1685471921717721000,9.15972119140625,-0.00022689280740451068,-0.00008726646046852693,0.0003490658418741077
1685471921737721000,9.17972119140625,-0.0003490658418741077,0.00043633230961859226,0.0014486232539638877
1685471921757721000,9.19972119140625,-0.00038397242315113544,-0.00047123889089562,-0.0006806784076616168
1685471921777721000,9.21972119140625,-0.00027925267932005227,-0.0003665191470645368,-0.0007330382941290736
1685471921797721000,9.23972119140625,-0.00008726646046852693,-0.0006457717972807586,-0.00027925267932005227
1685471921817721000,9.25972119140625,-0.0009773843921720982,0.00015707963029854,-0.00012217304902151227
1685471921837721000,9.27972119140625,-0.0004886921960860491,-0.0013962633674964309,-0.0005235987482592463
1685471921857721000,9.29972119140625,-0.00043633230961859226,0.0008377580670639873,-0.0003490658418741077
1685471921877721000,9.31972119140625,0.000052359879191499203,-0.0006457717972807586,-0.00041887903353199363
1685471921897721000,9.33972119140625,0.00010471975838299841,0.0006806784076616168,0
1685471921917721000,9.35972119140625,0.00040142572834156454,-0.0007330382941290736,0.00008726646046852693
1685471921937721000,9.37972119140625,-0.0006457717972807586,-0.0008028514566831291,-0.0005235987482592463
1685471921957721000,9.39972119140625,0.00027925267932005227,-0.00019198621157556772,0.00094247778179124
1685471921977721000,9.41972119140625,0.0005235987482592463,0.00017453292093705386,0.0006457717972807586
1685471921997721000,9.43972119140625,0.0009250245057046413,0.00022689280740451068,-0.00006981316983001307
1685471922017721000,9.45972119140625,-0.00008726646046852693,-0.0007679448463022709,0.000017453292457503267
1685471922037721000,9.47972119140625,0.00020943951676599681,-0.00024434609804302454,0.00041887903353199363
1685471922057721000,9.49972119140625,0.00024434609804302454,0.00047123889089562,-0.0007504915702156723
1685471922077721000,9.51972119140625,0.00094247778179124,-0.0005585053586401045,-0.00015707963029854
1685471922097721000,9.53972119140625,-0.0003490658418741077,-0.0005585053586401045,0.00019198621157556772
1685471922117721000,9.55972119140625,-0.0003665191470645368,-0.00019198621157556772,-0.00022689280740451068
1685471922137721000,9.57972119140625,-0.0006632251315750182,-0.0006108652451075613,-0.000715585018042475
1685471922157721000,9.59972119140625,-0.0007853981805965304,0.00012217304902151227,-0.0005235987482592463
1685471922177721000,9.61972119140625,-0.00003490658491500653,0.0005410520825535059,-0.00003490658491500653
1685471922197721000,9.63972119140625,-0.000715585018042475,-0.00020943951676599681,-0.0009948377264663577
1685471922217721000,9.65972119140625,0.000017453292457503267,0.0005061454721726477,-0.00003490658491500653
1685471922237721000,9.67972119140625,0.00031415926059708,-0.0008901178953237832,-0.0009773843921720982
1685471922257721000,9.69972119140625,0.00012217304902151227,0.00003490658491500653,-0.0009773843921720982
1685471922277721000,9.71972119140625,0.0008377580670639873,-0.0005934119690209627,0.0003665191470645368
1685471922297721000,9.73972119140625,0.001029744278639555,-0.0008726646192371845,-0.00062831852119416
1685471922317721000,9.75972119140625,-0.001029744278639555,0.0005759586347267032,-0.00024434609804302454
1685471922337721000,9.77972119140625,0.00015707963029854,0.0009075712296180427,0.00017453292093705386
1685471922357721000,9.79972119140625,-0.00031415926059708,0.00010471975838299841,-0.000017453292457503267
1685471922377721000,9.81972119140625,-0.00008726646046852693,0.00019198621157556772,-0.0003665191470645368
1685471922397721000,9.83972119140625,-0.00041887903353199363,0.0012217304902151227,0.000052359879191499203
1685471922417721000,9.85972119140625,-0.00029670598451048136,0.0006806784076616168,0.0008726646192371845
1685471922437721000,9.87972119140625,0.000052359879191499203,0.0006108652451075613,-0.00012217304902151227
1685471922457721000,9.89972119140625,-0.00013962633966002613,0.00043633230961859226,-0.0006632251315750182
1685471922477721000,9.91972119140625,0.00047123889089562,-0.0005410520825535059,-0.00047123889089562
1685471922497721000,9.93972119140625,-0.000052359879191499203,-0.00024434609804302454,-0.0009075712296180427
1685471922517721000,9.95972119140625,-0.00012217304902151227,-0.00041887903353199363,-0.0006632251315750182
1685471922537721000,9.97972119140625,-0.00013962633966002613,0.00013962633966002613,-0.0008552113431505859
1685471922557721000,9.99972119140625,0.000017453292457503267,-0.0003490658418741077,-0.000017453292457503267
1685471922577721000,10.01972119140625,-0.00038397242315113544,0.0002617993741296232,-0.00013962633966002613
1685471922597721000,10.03972119140625,0.0009599310578778386,0.00031415926059708,-0.000715585018042475
1685471922617721000,10.05972119140625,0,-0.00006981316983001307,0.00043633230961859226
1685471922637721000,10.07972119140625,-0.00045378561480902135,-0.0007679448463022709,-0.00008726646046852693
1685471922657721000,10.09972119140625,-0.0002617993741296232,-0.00017453292093705386,-0.00006981316983001307
1685471922677721000,10.11972119140625,0.0009773843921720982,-0.00047123889089562,-0.0010122909443452954
1685471922697721000,10.13972119140625,-0.00013962633966002613,0.0013962633674964309,0.0010122909443452954
1685471922717721000,10.15972119140625,-0.000052359879191499203,-0.00020943951676599681,-0.00041887903353199363
1685471922737721000,10.17972119140625,0.00019198621157556772,-0.0005410520825535059,-0.0007853981805965304
1685471922757721000,10.19972119140625,-0.0002617993741296232,-0.0002617993741296232,-0.0005061454721726477
1685471922777721000,10.21972119140625,0.0003665191470645368,0.0003665191470645368,0.00006981316983001307
1685471922797721000,10.23972119140625,-0.00024434609804302454,-0.0003316125657875091,0.000017453292457503267
1685471922817721000,10.25972119140625,-0.00015707963029854,-0.0003316125657875091,0.0006108652451075613
1685471922837721000,10.27972119140625,0.00024434609804302454,-0.00008726646046852693,-0.00003490658491500653
1685471922857721000,10.29972119140625,-0.0003665191470645368,-0.00010471975838299841,0.0013264502631500363
1685471922877721000,10.31972119140625,-0.0003316125657875091,-0.0003316125657875091,0.0005410520825535059
1685471922897721000,10.33972119140625,-0.00013962633966002613,-0.00024434609804302454,0.0009075712296180427
1685471922917721000,10.35972119140625,0.0010122909443452954,-0.0003490658418741077,-0.0005585053586401045
1685471922937721000,10.37972119140625,0.00022689280740451068,-0.00017453292093705386,-0.0009250245057046413
1685471922957721000,10.39972119140625,-0.00029670598451048136,0.00125663704238832,0.0005061454721726477
1685471922977721000,10.41972119140625,-0.00003490658491500653,0.0005585053586401045,-0.00045378561480902135
1685471922997721000,10.43972119140625,-0.0003316125657875091,-0.00047123889089562,0.00020943951676599681
1685471923017721000,10.45972119140625,0.0003490658418741077,-0.00024434609804302454,-0.00041887903353199363
1685471923037721000,10.47972119140625,0.0005061454721726477,0.00012217304902151227,0.00010471975838299841
1685471923057721000,10.49972119140625,-0.00008726646046852693,0.0005061454721726477,-0.00045378561480902135
1685471923077721000,10.51972119140625,-0.0003316125657875091,-0.00020943951676599681,0.00019198621157556772
1685471923097721000,10.53972119140625,0,0.00062831852119416,-0.0012217304902151227
1685471923117721000,10.55972119140625,-0.0003316125657875091,-0.00017453292093705386,-0.0011519172694534063
1685471923137721000,10.57972119140625,-0.00008726646046852693,-0.00020943951676599681,-0.00094247778179124
1685471923157721000,10.59972119140625,-0.00041887903353199363,0.00013962633966002613,0.0005235987482592463
1685471923177721000,10.61972119140625,0.0006806784076616168,-0.0009773843921720982,-0.0008901178953237832
1685471923197721000,10.63972119140625,-0.0002617993741296232,0.00024434609804302454,-0.00027925267932005227
1685471923217721000,10.65972119140625,-0.00003490658491500653,-0.00047123889089562,-0.0008726646192371845
1685471923237721000,10.67972119140625,0.0005235987482592463,-0.00041887903353199363,-0.00041887903353199363
1685471923257721000,10.69972119140625,0,-0.00047123889089562,-0.00027925267932005227
1685471923277721000,10.71972119140625,0.00010471975838299841,0.00012217304902151227,-0.0006981316837482154
1685471923297721000,10.73972119140625,0.00020943951676599681,-0.0005410520825535059,-0.0008028514566831291
1685471923317721000,10.75972119140625,0.0002617993741296232,-0.00045378561480902135,0
1685471923337721000,10.77972119140625,-0.0005759586347267032,-0.0005759586347267032,-0.001029744278639555
1685471923357721000,10.79972119140625,0.0003490658418741077,-0.00040142572834156454,0.00022689280740451068
1685471923377721000,10.81972119140625,-0.00015707963029854,0.00019198621157556772,-0.0008901178953237832
1685471923397721000,10.83972119140625,0.00006981316983001307,0.0008901178953237832,-0.0005410520825535059
1685471923417721000,10.85972119140625,0.0007504915702156723,0.000017453292457503267,-0.00006981316983001307
1685471923437721000,10.87972119140625,0.00024434609804302454,-0.0005410520825535059,-0.0006806784076616168
1685471923457721000,10.89972119140625,0.0005410520825535059,-0.0003316125657875091,0.0012740903766825795
1685471923477721000,10.91972119140625,0.00015707963029854,-0.0010646508308127522,-0.0012042771559208632
1685471923497721000,10.93972119140625,-0.00003490658491500653,-0.0005235987482592463,0.0003316125657875091
1685471923517722600,10.95972265625,-0.0003316125657875091,0.0005061454721726477,-0.0006108652451075613
1685471923537721000,10.97972119140625,0.0005061454721726477,-0.0008377580670639873,-0.0002617993741296232
1685471923557721000,10.99972119140625,0.000052359879191499203,-0.0005235987482592463,-0.0009075712296180427
1685471923577721000,11.01972119140625,0.000017453292457503267,0.00029670598451048136,-0.00041887903353199363
1685471923597721000,11.03972119140625,-0.00027925267932005227,-0.00012217304902151227,-0.00019198621157556772
1685471923617721000,11.05972119140625,-0.00010471975838299841,-0.00047123889089562,-0.0003316125657875091
1685471923637721000,11.07972119140625,-0.00006981316983001307,-0.00038397242315113544,-0.0003665191470645368
1685471923657721000,11.09972119140625,-0.00038397242315113544,0.0005061454721726477,0.001029744278639555
1685471923677721000,11.11972119140625,0.00003490658491500653,-0.00029670598451048136,-0.00041887903353199363
1685471923697721000,11.13972119140625,0.0005410520825535059,-0.00040142572834156454,-0.0008377580670639873
1685471923717721000,11.15972119140625,0,-0.0003316125657875091,-0.00008726646046852693
1685471923737721000,11.17972119140625,-0.000715585018042475,-0.0010122909443452954,-0.0008901178953237832
1685471923757721000,11.19972119140625,0,0.0009948377264663577,-0.0005585053586401045
1685471923777721000,11.21972119140625,-0.0003665191470645368,-0.000017453292457503267,-0.00062831852119416
1685471923797721000,11.23972119140625,-0.0003316125657875091,0.00010471975838299841,-0.00015707963029854
1685471923817722600,11.25972265625,-0.00031415926059708,-0.00040142572834156454,0.00040142572834156454
1685471923837721000,11.27972119140625,-0.0005410520825535059,-0.00040142572834156454,-0.0015882495790719986
1685471923857721000,11.29972119140625,-0.00013962633966002613,-0.0010471974965184927,-0.0007504915702156723
1685471923877721000,11.31972119140625,0.00013962633966002613,0.00017453292093705386,0.00029670598451048136
1685471923897721000,11.33972119140625,0.00019198621157556772,0.0007679448463022709,0.00029670598451048136
1685471923917721000,11.35972119140625,-0.00022689280740451068,-0.0012217304902151227,-0.0012740903766825795
1685471923937721000,11.37972119140625,-0.00017453292093705386,-0.0005235987482592463,-0.0008028514566831291
1685471923957721000,11.39972119140625,0.00027925267932005227,0.0015707963611930609,0.0005759586347267032
1685471923977721000,11.41972119140625,-0.0003665191470645368,-0.00010471975838299841,-0.00006981316983001307
1685471923997721000,11.43972119140625,-0.00003490658491500653,-0.0008901178953237832,-0.0003490658418741077
1685471924017721000,11.45972119140625,-0.00015707963029854,-0.00010471975838299841,-0.0004886921960860491
1685471924037721000,11.47972119140625,0.0005759586347267032,-0.001483529806137085,-0.0009773843921720982
1685471924057721000,11.49972119140625,-0.00043633230961859226,-0.00012217304902151227,-0.00012217304902151227
1685471924077721000,11.51972119140625,0,0.00062831852119416,-0.0002617993741296232
1685471924097721000,11.53972119140625,-0.00038397242315113544,-0.00012217304902151227,0.0002617993741296232
1685471924117721000,11.55972119140625,0.00006981316983001307,-0.0005585053586401045,0.00029670598451048136
1685471924137721000,11.57972119140625,-0.00020943951676599681,-0.00008726646046852693,-0.0008901178953237832
1685471924157721000,11.59972119140625,0,-0.0005759586347267032,0.00019198621157556772
1685471924177721000,11.61972119140625,0.00010471975838299841,-0.00017453292093705386,-0.00019198621157556772
1685471924197721000,11.63972119140625,0.00027925267932005227,0.002321287989616394,0.0016755161341279745
1685471924217721000,11.65972119140625,-0.00040142572834156454,-0.0005759586347267032,0.0006632251315750182
1685471924237721000,11.67972119140625,0.00017453292093705386,-0.0003490658418741077,-0.001029744278639555
1685471924257721000,11.69972119140625,0.00003490658491500653,-0.00017453292093705386,-0.0005410520825535059
1685471924277722600,11.71972265625,0.000017453292457503267,-0.0004886921960860491,-0.0009773843921720982
1685471924297721000,11.73972119140625,0.0008028514566831291,-0.0003316125657875091,-0.00041887903353199363
1685471924317721000,11.75972119140625,-0.00019198621157556772,-0.0002617993741296232,-0.0010821041651070118
1685471924337721000,11.77972119140625,0.00013962633966002613,-0.00045378561480902135,-0.00047123889089562
1685471924357721000,11.79972119140625,0.00006981316983001307,0.00019198621157556772,-0.00027925267932005227
1685471924377721000,11.81972119140625,-0.000052359879191499203,-0.00041887903353199363,-0.0005061454721726477
1685471924397721000,11.83972119140625,0.0006981316837482154,-0.00013962633966002613,-0.000052359879191499203
1685471924417721000,11.85972119140625,0.00024434609804302454,-0.00006981316983001307,-0.0009599310578778386
1685471924437721000,11.87972119140625,-0.000017453292457503267,-0.0008028514566831291,-0.00027925267932005227
1685471924457721000,11.89972119140625,-0.00013962633966002613,-0.000052359879191499203,-0.00006981316983001307
1685471924477721000,11.91972119140625,0.00047123889089562,0.00062831852119416,0.00012217304902151227
1685471924497721000,11.93972119140625,-0.00015707963029854,-0.00045378561480902135,-0.0005235987482592463
1685471924517721000,11.95972119140625,0.00027925267932005227,0.00010471975838299841,-0.0005235987482592463
1685471924537721000,11.97972119140625,0.0006457717972807586,0.00013962633966002613,-0.00031415926059708
1685471924557721000,11.99972119140625,-0.0003665191470645368,0.0008726646192371845,-0.00040142572834156454
1685471924577721000,12.01972119140625,-0.00008726646046852693,-0.00003490658491500653,-0.0003665191470645368
1685471924597721000,12.03972119140625,0.00006981316983001307,0.0011344640515744686,0.0010471974965184927
1685471924617721000,12.05972119140625,0.0005061454721726477,-0.0006108652451075613,-0.00031415926059708
1685471924637721000,12.07972119140625,-0.00006981316983001307,-0.00045378561480902135,-0.0011344640515744686
1685471924657721000,12.09972119140625,0.000052359879191499203,-0.0006108652451075613,-0.0003490658418741077
1685471924677721000,12.11972119140625,0.00022689280740451068,-0.00047123889089562,0.00020943951676599681
1685471924697721000,12.13972119140625,-0.00017453292093705386,0.00038397242315113544,0.0014137167017906904
1685471924717721000,12.15972119140625,0.0007330382941290736,-0.0002617993741296232,0.00029670598451048136
1685471924737721000,12.17972119140625,0.0005759586347267032,0.0006108652451075613,0.0008203047327697277
1685471924757721000,12.19972119140625,0.00022689280740451068,-0.0007679448463022709,-0.00027925267932005227
1685471924777721000,12.21972119140625,0.00003490658491500653,0.0003665191470645368,-0.0005061454721726477
1685471924797721000,12.23972119140625,0.0008203047327697277,-0.0005061454721726477,-0.0010471974965184927
1685471924817721000,12.25972119140625,0.0008726646192371845,0.00040142572834156454,0.0013788101496174932
1685471924837721000,12.27972119140625,0.0007504915702156723,0.00045378561480902135,-0.00027925267932005227
1685471924857721000,12.29972119140625,-0.00003490658491500653,-0.00008726646046852693,-0.00008726646046852693
1685471924877721000,12.31972119140625,0.00019198621157556772,0.0010122909443452954,-0.00043633230961859226
1685471924897721000,12.33972119140625,-0.0003665191470645368,0,0.000017453292457503267
1685471924917721000,12.35972119140625,0.001117010717280209,-0.00013962633966002613,-0.00029670598451048136
1685471924937721000,12.37972119140625,-0.00038397242315113544,-0.00006981316983001307,0.0013089969288557768
1685471924957721000,12.39972119140625,0.00006981316983001307,0.00015707963029854,-0.0007330382941290736
1685471924977721000,12.41972119140625,-0.00019198621157556772,-0.00003490658491500653,-0.00062831852119416
1685471924997721000,12.43972119140625,0.0003490658418741077,-0.00031415926059708,0.00047123889089562
1685471925017721000,12.45972119140625,0.000052359879191499203,0.0011868239380419254,0.0004886921960860491
1685471925037721000,12.47972119140625,0.00027925267932005227,-0.0005410520825535059,-0.001343903481028974
1685471925057721000,12.49972119140625,-0.00019198621157556772,-0.00024434609804302454,-0.0005235987482592463
1685471925077721000,12.51972119140625,-0.00012217304902151227,0.0012217304902151227,-0.00040142572834156454
1685471925097721000,12.53972119140625,0.0004886921960860491,0.00003490658491500653,0.0008552113431505859
1685471925117780500,12.559780517578124,0.00006981316983001307,-0.0006108652451075613,0.0014486232539638877
1685471925137721000,12.57972119140625,-0.00022689280740451068,-0.00015707963029854,-0.00024434609804302454
1685471925157721000,12.59972119140625,0.00038397242315113544,-0.00013962633966002613,0.00015707963029854
1685471925177721000,12.61972119140625,-0.0003665191470645368,0.00010471975838299841,-0.001029744278639555
1685471925197721000,12.63972119140625,-0.00003490658491500653,-0.00024434609804302454,-0.0005585053586401045
1685471925217722600,12.65972265625,0.00029670598451048136,0.0005759586347267032,-0.00012217304902151227
1685471925237721000,12.67972119140625,-0.0010122909443452954,-0.00019198621157556772,-0.0003665191470645368
1685471925257721000,12.69972119140625,-0.00017453292093705386,0.0003665191470645368,-0.0003316125657875091
1685471925277721000,12.71972119140625,-0.0005585053586401045,0.00003490658491500653,0.0008901178953237832
1685471925297721000,12.73972119140625,0.000052359879191499203,0.0003316125657875091,-0.00020943951676599681
1685471925317721000,12.75972119140625,0.00024434609804302454,0.0005235987482592463,0.00010471975838299841
1685471925337721000,12.77972119140625,-0.00015707963029854,0.0002617993741296232,0.00024434609804302454
1685471925357721000,12.79972119140625,0.00045378561480902135,-0.00006981316983001307,-0.00010471975838299841
1685471925377721000,12.81972119140625,-0.00024434609804302454,-0.00006981316983001307,0.00045378561480902135
1685471925397721000,12.83972119140625,0.00062831852119416,-0.00047123889089562,0.00015707963029854
1685471925417721000,12.85972119140625,-0.000017453292457503267,-0.00043633230961859226,-0.0005585053586401045
1685471925437721000,12.87972119140625,0.001343903481028974,-0.00020943951676599681,-0.0008377580670639873
1685471925457721000,12.89972119140625,0.0004886921960860491,0.000017453292457503267,0.00008726646046852693
1685471925477721000,12.91972119140625,-0.00006981316983001307,0.00013962633966002613,-0.00003490658491500653
1685471925497721000,12.93972119140625,-0.00006981316983001307,-0.0008377580670639873,0
1685471925517721000,12.95972119140625,-0.00006981316983001307,-0.00019198621157556772,-0.0005934119690209627
1685471925537721000,12.97972119140625,-0.00027925267932005227,-0.0006806784076616168,0.0009599310578778386
1685471925557721000,12.99972119140625,-0.00010471975838299841,-0.0003316125657875091,0.00010471975838299841
1685471925577721000,13.01972119140625,0.00031415926059708,-0.00006981316983001307,0.00022689280740451068
1685471925597721000,13.03972119140625,0.0006632251315750182,-0.00008726646046852693,-0.00022689280740451068
1685471925617721000,13.05972119140625,0.000052359879191499203,0.00017453292093705386,-0.00003490658491500653
1685471925637721000,13.07972119140625,-0.00040142572834156454,-0.0003316125657875091,-0.00006981316983001307
1685471925657721000,13.09972119140625,-0.00043633230961859226,0.00020943951676599681,0.0003665191470645368
1685471925677721000,13.11972119140625,0.0005061454721726477,0.0012042771559208632,-0.0008901178953237832
1685471925697721000,13.13972119140625,-0.0007853981805965304,-0.00012217304902151227,-0.00027925267932005227
1685471925717721000,13.15972119140625,0.00027925267932005227,0.00010471975838299841,0.0008028514566831291
1685471925737721000,13.17972119140625,-0.00038397242315113544,-0.0003490658418741077,-0.0006806784076616168
1685471925757721000,13.19972119140625,0.0003490658418741077,-0.0009599310578778386,-0.000052359879191499203
1685471925777721000,13.21972119140625,-0.00022689280740451068,-0.0006108652451075613,-0.00094247778179124
1685471925797721000,13.23972119140625,0.000017453292457503267,0.000017453292457503267,-0.0005759586347267032
1685471925817721000,13.25972119140625,-0.00010471975838299841,-0.00012217304902151227,-0.00043633230961859226
1685471925837721000,13.27972119140625,-0.00040142572834156454,-0.0004886921960860491,-0.0012217304902151227
1685471925857721000,13.29972119140625,-0.00006981316983001307,0.0005934119690209627,-0.000017453292457503267
1685471925877721000,13.31972119140625,-0.00010471975838299841,-0.0007330382941290736,-0.0007504915702156723
1685471925897721000,13.33972119140625,-0.00022689280740451068,0.0009075712296180427,0.00019198621157556772
1685471925917721000,13.35972119140625,0.00010471975838299841,-0.0010995573829859495,-0.001029744278639555
1685471925937721000,13.37972119140625,-0.0003316125657875091,0.00024434609804302454,-0.0006457717972807586
1685471925957721000,13.39972119140625,-0.00008726646046852693,-0.0006457717972807586,-0.00062831852119416
1685471925977721000,13.41972119140625,-0.0005934119690209627,-0.0004886921960860491,0.000052359879191499203
1685471925997721000,13.43972119140625,-0.000052359879191499203,0.00040142572834156454,-0.0006981316837482154
1685471926017721000,13.45972119140625,0.0003665191470645368,0.0010471974965184927,-0.0005934119690209627
1685471926037721000,13.47972119140625,0.000052359879191499203,-0.00008726646046852693,-0.00047123889089562
1685471926057721000,13.49972119140625,-0.00010471975838299841,0.00043633230961859226,-0.000715585018042475
1685471926077721000,13.51972119140625,0.00015707963029854,-0.00003490658491500653,0.00024434609804302454
1685471926097721000,13.53972119140625,0.0003490658418741077,0.00027925267932005227,0.0005235987482592463
1685471926117721000,13.55972119140625,0.00012217304902151227,-0.000017453292457503267,-0.00047123889089562
1685471926137721000,13.57972119140625,-0.00041887903353199363,-0.0007853981805965304,-0.00022689280740451068
1685471926157721000,13.59972119140625,-0.00043633230961859226,-0.0010995573829859495,-0.00125663704238832
1685471926177721000,13.61972119140625,0.00003490658491500653,0.0021118484437465668,0.0006981316837482154
1685471926197721000,13.63972119140625,-0.00008726646046852693,-0.00024434609804302454,0.0005585053586401045
1685471926217721000,13.65972119140625,-0.00043633230961859226,-0.0009250245057046413,-0.0015882495790719986
1685471926237721000,13.67972119140625,0.00024434609804302454,-0.00040142572834156454,-0.000715585018042475
1685471926257721000,13.69972119140625,-0.00020943951676599681,-0.000017453292457503267,0.00022689280740451068
1685471926277721000,13.71972119140625,0.00008726646046852693,0.00041887903353199363,0.00027925267932005227
1685471926297721000,13.73972119140625,0.0007679448463022709,0.00012217304902151227,-0.00015707963029854
1685471926317721000,13.75972119140625,-0.0003665191470645368,-0.00045378561480902135,0.0009773843921720982
1685471926337721000,13.77972119140625,-0.00040142572834156454,-0.00038397242315113544,0.00013962633966002613
1685471926357721000,13.79972119140625,-0.00020943951676599681,-0.000715585018042475,-0.00015707963029854
1685471926377721000,13.81972119140625,-0.00040142572834156454,-0.00094247778179124,-0.0004886921960860491
1685471926397721000,13.83972119140625,-0.00017453292093705386,-0.00017453292093705386,0.000017453292457503267
1685471926417721000,13.85972119140625,-0.0003665191470645368,-0.0008377580670639873,-0.0006981316837482154
1685471926437721000,13.87972119140625,0.0007679448463022709,-0.00015707963029854,0.0006981316837482154
1685471926457721000,13.89972119140625,0.0005061454721726477,-0.0010122909443452954,0
1685471926477721000,13.91972119140625,0.00027925267932005227,-0.00012217304902151227,-0.00012217304902151227
1685471926497721000,13.93972119140625,-0.0003316125657875091,-0.00006981316983001307,-0.0002617993741296232
1685471926517721000,13.95972119140625,0,0,0.00029670598451048136
1685471926537721000,13.97972119140625,0.00013962633966002613,0.00047123889089562,0.0006108652451075613
1685471926557721000,13.99972119140625,-0.000052359879191499203,-0.0008028514566831291,0.0005585053586401045
1685471926577721000,14.01972119140625,0.00019198621157556772,-0.0003490658418741077,-0.00205948855727911
1685471926597721000,14.03972119140625,0.0003316125657875091,-0.00043633230961859226,-0.00040142572834156454
1685471926617721000,14.05972119140625,0.0005410520825535059,-0.0007679448463022709,0.0005061454721726477
1685471926637721000,14.07972119140625,0.00029670598451048136,-0.00043633230961859226,-0.00041887903353199363
1685471926657721000,14.09972119140625,-0.00043633230961859226,-0.00043633230961859226,0.00024434609804302454
1685471926677721000,14.11972119140625,0.0008377580670639873,-0.00047123889089562,0.00015707963029854
1685471926697721000,14.13972119140625,0.00006981316983001307,0.0006632251315750182,0.0005410520825535059
1685471926717721000,14.15972119140625,0,-0.00013962633966002613,0
1685471926737721000,14.17972119140625,-0.00041887903353199363,-0.0008203047327697277,0.00010471975838299841
1685471926757721000,14.19972119140625,0.00027925267932005227,0.0006457717972807586,-0.0002617993741296232
1685471926777721000,14.21972119140625,0.00013962633966002613,-0.0002617993741296232,-0.00013962633966002613
1685471926797721000,14.23972119140625,0.00010471975838299841,0.00047123889089562,0.0002617993741296232
1685471926817721000,14.25972119140625,0,-0.0008028514566831291,-0.00040142572834156454
1685471926837721000,14.27972119140625,0.00038397242315113544,0.0007679448463022709,0.00022689280740451068
1685471926857721000,14.29972119140625,-0.00012217304902151227,0.0007504915702156723,0.00031415926059708
1685471926877721000,14.31972119140625,-0.00038397242315113544,-0.00094247778179124,-0.0006981316837482154
1685471926897721000,14.33972119140625,-0.00031415926059708,-0.00143117003608495,-0.0003665191470645368
1685471926917721000,14.35972119140625,0.000052359879191499203,-0.0006457717972807586,-0.00020943951676599681
1685471926937721000,14.37972119140625,-0.0003665191470645368,-0.00019198621157556772,-0.0002617993741296232
1685471926957721000,14.39972119140625,-0.00013962633966002613,0.00010471975838299841,0.0002617993741296232
1685471926977721000,14.41972119140625,0.0005934119690209627,-0.00003490658491500653,-0.0014486232539638877
1685471926997721000,14.43972119140625,-0.00027925267932005227,-0.00012217304902151227,-0.00006981316983001307
1685471927017721000,14.45972119140625,-0.00003490658491500653,0.0005410520825535059,-0.00024434609804302454
1685471927037721000,14.47972119140625,0.0005410520825535059,0.000052359879191499203,0.00031415926059708
1685471927057721000,14.49972119140625,0.00040142572834156454,-0.0003490658418741077,-0.0005585053586401045
1685471927077721000,14.51972119140625,-0.0007679448463022709,-0.00062831852119416,-0.0005585053586401045
1685471927097721000,14.53972119140625,0.00006981316983001307,-0.00041887903353199363,0.0003316125657875091
1685471927117721000,14.55972119140625,-0.0003665191470645368,-0.0006632251315750182,-0.0005061454721726477
1685471927137721000,14.57972119140625,0.00024434609804302454,0.00022689280740451068,0.001117010717280209
1685471927157722600,14.59972265625,0.000017453292457503267,-0.0005934119690209627,-0.00043633230961859226
1685471927177721000,14.61972119140625,-0.0005061454721726477,0.0006108652451075613,-0.00017453292093705386
1685471927197721000,14.63972119140625,-0.0002617993741296232,-0.0006981316837482154,0.00015707963029854
1685471927217721000,14.65972119140625,0.00013962633966002613,-0.00043633230961859226,-0.0008028514566831291
1685471927237721000,14.67972119140625,-0.0003665191470645368,-0.00041887903353199363,-0.0007504915702156723
1685471927257721000,14.69972119140625,0.00024434609804302454,0.00012217304902151227,0.0008552113431505859
1685471927277721000,14.71972119140625,-0.00038397242315113544,-0.0005061454721726477,-0.0015009831404313445
1685471927297721000,14.73972119140625,0.00015707963029854,0.0012915435945615172,0.00006981316983001307
1685471927317721000,14.75972119140625,-0.00029670598451048136,-0.0007330382941290736,-0.0007504915702156723
1685471927337721000,14.77972119140625,0.00024434609804302454,0.001658062799833715,0.0015358896926045418
1685471927357721000,14.79972119140625,0.00019198621157556772,0.0008726646192371845,-0.00008726646046852693
1685471927377721000,14.81972119140625,-0.00038397242315113544,-0.00020943951676599681,-0.0009250245057046413
1685471927397721000,14.83972119140625,0.0008552113431505859,-0.00024434609804302454,-0.00008726646046852693
1685471927417721000,14.85972119140625,0.00031415926059708,-0.00003490658491500653,-0.0005235987482592463
1685471927437721000,14.87972119140625,0.0003316125657875091,0.0002617993741296232,0.00041887903353199363
1685471927457721000,14.89972119140625,-0.00008726646046852693,0.00006981316983001307,0.0003665191470645368
1685471927477721000,14.91972119140625,-0.00020943951676599681,-0.000017453292457503267,0.00029670598451048136
1685471927497721000,14.93972119140625,0.00013962633966002613,-0.00010471975838299841,-0.00024434609804302454
1685471927517721000,14.95972119140625,0.00003490658491500653,-0.00012217304902151227,-0.00022689280740451068
1685471927537721000,14.97972119140625,0.00038397242315113544,-0.0005235987482592463,-0.00125663704238832
1685471927557721000,14.99972119140625,-0.0006632251315750182,0.0005410520825535059,-0.0005410520825535059
1685471927577721000,15.01972119140625,-0.0003665191470645368,-0.00022689280740451068,0.00017453292093705386
1685471927597721000,15.03972119140625,-0.0006806784076616168,-0.0007853981805965304,-0.0011868239380419254
1685471927617721000,15.05972119140625,0.0008552113431505859,-0.00047123889089562,0.0009773843921720982
1685471927637721000,15.07972119140625,-0.000017453292457503267,-0.00012217304902151227,-0.0004886921960860491
1685471927657721000,15.09972119140625,-0.00020943951676599681,0.00027925267932005227,0.00019198621157556772
1685471927677721000,15.11972119140625,0.00015707963029854,0.00043633230961859226,-0.0006108652451075613
1685471927697721000,15.13972119140625,-0.0006457717972807586,-0.00040142572834156454,-0.00003490658491500653
1685471927717721000,15.15972119140625,0.00010471975838299841,-0.00015707963029854,0.0004886921960860491
1685471927737721000,15.17972119140625,-0.00022689280740451068,0.0005934119690209627,-0.0003665191470645368
1685471927757721000,15.19972119140625,-0.00020943951676599681,0.00020943951676599681,-0.0010821041651070118
1685471927777721000,15.21972119140625,-0.0003665191470645368,-0.00047123889089562,0.0005934119690209627
1685471927797721000,15.23972119140625,-0.00006981316983001307,-0.000017453292457503267,0.0006632251315750182
1685471927817722600,15.25972265625,0.0011693706037476659,0.0009948377264663577,0.0006806784076616168
1685471927837721000,15.27972119140625,-0.0003665191470645368,0.00010471975838299841,0.000052359879191499203
1685471927857721000,15.29972119140625,-0.00041887903353199363,-0.00045378561480902135,-0.0005585053586401045
1685471927877721000,15.31972119140625,-0.00041887903353199363,0.0012042771559208632,0.00019198621157556772
1685471927897721000,15.33972119140625,-0.00043633230961859226,0.0002617993741296232,-0.0002617993741296232
1685471927917721000,15.35972119140625,-0.00040142572834156454,-0.0008901178953237832,0.00019198621157556772
1685471927937721000,15.37972119140625,0.00013962633966002613,0.00027925267932005227,-0.0009948377264663577
1685471927957721000,15.39972119140625,0.0006457717972807586,0.0008203047327697277,-0.00031415926059708
1685471927977721000,15.41972119140625,-0.000017453292457503267,-0.00006981316983001307,0.0003490658418741077
1685471927997721000,15.43972119140625,0.0003490658418741077,0.0009948377264663577,0.0003665191470645368
1685471928017721000,15.45972119140625,-0.00027925267932005227,-0.0006632251315750182,-0.0005410520825535059
1685471928037721000,15.47972119140625,0.00047123889089562,-0.00094247778179124,0.00022689280740451068
1685471928057721000,15.49972119140625,0.000017453292457503267,-0.00040142572834156454,-0.0005061454721726477
1685471928077721000,15.51972119140625,0.0003316125657875091,-0.0018151424592360854,-0.0007853981805965304
1685471928097721000,15.53972119140625,0.0002617993741296232,-0.000017453292457503267,0.0002617993741296232
1685471928117721000,15.55972119140625,0,-0.00031415926059708,-0.000017453292457503267
1685471928137721000,15.57972119140625,-0.000052359879191499203,-0.00040142572834156454,-0.0005759586347267032
1685471928157721000,15.59972119140625,0,-0.00029670598451048136,-0.0002617993741296232
1685471928177721000,15.61972119140625,-0.0005934119690209627,0.0005934119690209627,0.0008552113431505859
1685471928197721000,15.63972119140625,-0.0002617993741296232,0.00027925267932005227,-0.0008901178953237832
1685471928217721000,15.65972119140625,0.001029744278639555,0.0009075712296180427,0.00024434609804302454
1685471928237721000,15.67972119140625,0.00024434609804302454,0.0010646508308127522,-0.00013962633966002613
1685471928257721000,15.69972119140625,0.00031415926059708,-0.00010471975838299841,0.0005410520825535059
1685471928277721000,15.71972119140625,0.00040142572834156454,-0.00031415926059708,0.0003490658418741077
1685471928297721000,15.73972119140625,0.00010471975838299841,-0.0003490658418741077,-0.00012217304902151227
1685471928317721000,15.75972119140625,0.00045378561480902135,-0.00027925267932005227,0.00041887903353199363
1685471928337721000,15.77972119140625,0.00022689280740451068,0.00027925267932005227,-0.00012217304902151227
1685471928357721000,15.79972119140625,0.0009599310578778386,-0.00006981316983001307,-0.00008726646046852693
1685471928377721000,15.81972119140625,-0.0003490658418741077,-0.0002617993741296232,-0.00003490658491500653
1685471928397721000,15.83972119140625,0.0005585053586401045,0.0013788101496174932,0.0003490658418741077
1685471928417721000,15.85972119140625,0.0005759586347267032,-0.00062831852119416,-0.00040142572834156454
1685471928437721000,15.87972119140625,-0.00041887903353199363,0.00024434609804302454,0.000715585018042475
1685471928457721000,15.89972119140625,0.00040142572834156454,0.0003316125657875091,-0.000017453292457503267
1685471928477721000,15.91972119140625,0.0004886921960860491,0.00027925267932005227,-0.0003490658418741077
1685471928497721000,15.93972119140625,-0.00022689280740451068,0.0005410520825535059,0.00017453292093705386
1685471928517721000,15.95972119140625,0.00022689280740451068,0.00029670598451048136,-0.00040142572834156454
1685471928537722600,15.97972265625,-0.00019198621157556772,0.00003490658491500653,-0.00029670598451048136
1685471928557721000,15.99972119140625,0.00045378561480902135,-0.0012391837080940604,-0.00027925267932005227
1685471928577721000,16.01972119140625,0,-0.0003490658418741077,-0.0007679448463022709
1685471928597721000,16.03972119140625,0.00043633230961859226,-0.000017453292457503267,-0.0004886921960860491
1685471928617721000,16.05972119140625,-0.0012217304902151227,-0.000052359879191499203,-0.00024434609804302454
1685471928637721000,16.07972119140625,-0.00017453292093705386,0.0012217304902151227,0.0008028514566831291
1685471928657721000,16.09972119140625,0.00019198621157556772,-0.0003316125657875091,0.000052359879191499203
1685471928677721000,16.11972119140625,0.0014137167017906904,0.000052359879191499203,-0.0008028514566831291
1685471928697721000,16.13972119140625,-0.00003490658491500653,0.0024260077625513077,0.0008203047327697277
1685471928717721000,16.15972119140625,-0.00040142572834156454,-0.00029670598451048136,-0.0006108652451075613
1685471928737721000,16.17972119140625,-0.00043633230961859226,-0.00029670598451048136,0.00045378561480902135
1685471928757721000,16.19972119140625,-0.00012217304902151227,-0.00043633230961859226,-0.0005585053586401045
1685471928777722600,16.21972265625,-0.00010471975838299841,0.00015707963029854,-0.0008901178953237832
1685471928797721000,16.23972119140625,0.0004886921960860491,0.00010471975838299841,0.0007504915702156723
1685471928817721000,16.25972119140625,-0.00027925267932005227,-0.0005585053586401045,-0.0006806784076616168
1685471928837721000,16.27972119140625,-0.00019198621157556772,-0.0002617993741296232,-0.00047123889089562
1685471928857721000,16.29972119140625,0.0003490658418741077,0.0006632251315750182,0.0008203047327697277
1685471928877721000,16.31972119140625,0.0006108652451075613,-0.0004886921960860491,0.0007679448463022709
1685471928897721000,16.33972119140625,-0.00017453292093705386,0.0012915435945615172,0.0010995573829859495
1685471928917721000,16.35972119140625,0.00024434609804302454,-0.00003490658491500653,0.0011868239380419254
1685471928937721000,16.37972119140625,-0.0003490658418741077,-0.00040142572834156454,0.00022689280740451068
1685471928957721000,16.39972119140625,-0.00012217304902151227,0.0010821041651070118,0.0010122909443452954
1685471928977721000,16.41972119140625,0.0003665191470645368,0.0006632251315750182,-0.00041887903353199363
1685471928997721000,16.43972119140625,0.0003490658418741077,0.00017453292093705386,-0.0011868239380419254
1685471929017721000,16.45972119140625,-0.000017453292457503267,0.00024434609804302454,0.0006806784076616168
1685471929037721000,16.47972119140625,-0.00013962633966002613,0.0006981316837482154,0.0006108652451075613
1685471929057721000,16.49972119140625,0.00006981316983001307,0.00024434609804302454,-0.0003665191470645368
1685471929077721000,16.51972119140625,0.00031415926059708,0,0.0008203047327697277
1685471929097721000,16.53972119140625,-0.00017453292093705386,-0.00031415926059708,-0.0004886921960860491
1685471929117721000,16.55972119140625,-0.00062831852119416,-0.0006806784076616168,-0.0002617993741296232
1685471929137721000,16.57972119140625,0.0010995573829859495,-0.00020943951676599681,-0.00031415926059708
1685471929157721000,16.59972119140625,-0.00043633230961859226,-0.00010471975838299841,-0.0007504915702156723
1685471929177721000,16.61972119140625,0.0003665191470645368,-0.0010821041651070118,0.0008552113431505859
1685471929197721000,16.63972119140625,-0.00040142572834156454,-0.00029670598451048136,0.00015707963029854
1685471929217721000,16.65972119140625,0.0005235987482592463,-0.00010471975838299841,-0.0011344640515744686
1685471929237721000,16.67972119140625,-0.00041887903353199363,-0.0009773843921720982,-0.0007679448463022709
1685471929257721000,16.69972119140625,0.00010471975838299841,-0.0005061454721726477,-0.00041887903353199363
1685471929277721000,16.71972119140625,0.0009948377264663577,-0.0005759586347267032,0.00043633230961859226
1685471929297721000,16.73972119140625,0,0.00038397242315113544,-0.00094247778179124
1685471929317721000,16.75972119140625,-0.00020943951676599681,-0.0005410520825535059,-0.00041887903353199363
1685471929337721000,16.77972119140625,-0.00010471975838299841,-0.00024434609804302454,-0.000017453292457503267
1685471929357721000,16.79972119140625,0,0.0006806784076616168,0.0007853981805965304
1685471929377721000,16.81972119140625,-0.00013962633966002613,-0.0005759586347267032,0.0009599310578778386
1685471929397721000,16.83972119140625,0.00047123889089562,-0.0008726646192371845,-0.0009948377264663577
1685471929417721000,16.85972119140625,0.00029670598451048136,-0.000052359879191499203,-0.0005759586347267032
1685471929437721000,16.87972119140625,-0.00019198621157556772,-0.000052359879191499203,-0.0002617993741296232
1685471929457721000,16.89972119140625,-0.00006981316983001307,0.000017453292457503267,0.0003316125657875091
1685471929477721000,16.91972119140625,-0.0004886921960860491,0,-0.002146754879504442
1685471929497721000,16.93972119140625,-0.00010471975838299841,-0.0005410520825535059,-0.0006806784076616168
1685471929517721000,16.95972119140625,-0.00019198621157556772,0.00003490658491500653,-0.000017453292457503267
1685471929537721000,16.97972119140625,-0.00062831852119416,-0.0006981316837482154,-0.0002617993741296232
1685471929557721000,16.99972119140625,0.00003490658491500653,0.00017453292093705386,-0.0005585053586401045
1685471929577721000,17.01972119140625,-0.00019198621157556772,-0.0010471974965184927,-0.0005934119690209627
1685471929597721000,17.03972119140625,0.000715585018042475,-0.000715585018042475,0.00006981316983001307
1685471929617721000,17.05972119140625,-0.0005235987482592463,0.0005235987482592463,-0.00024434609804302454
1685471929637721000,17.07972119140625,0,0.00062831852119416,0.00015707963029854
1685471929657721000,17.09972119140625,-0.00013962633966002613,0.00006981316983001307,0.0005759586347267032
1685471929677721000,17.11972119140625,-0.00038397242315113544,-0.0006632251315750182,-0.0005585053586401045
1685471929697721000,17.13972119140625,0.00003490658491500653,0.00019198621157556772,0.00024434609804302454
1685471929717721000,17.15972119140625,-0.00024434609804302454,-0.0011868239380419254,-0.0015358896926045418
1685471929737721000,17.17972119140625,0.000017453292457503267,-0.0004886921960860491,-0.0007330382941290736
1685471929757721000,17.19972119140625,0.00041887903353199363,0.00094247778179124,0.000017453292457503267
1685471929777721000,17.21972119140625,-0.00043633230961859226,-0.00043633230961859226,-0.0006632251315750182
1685471929797721000,17.23972119140625,0.0006108652451075613,-0.00040142572834156454,-0.002146754879504442
1685471929817721000,17.25972119140625,-0.00038397242315113544,-0.0006108652451075613,0.00031415926059708
1685471929837721000,17.27972119140625,0.00006981316983001307,0.00024434609804302454,-0.00043633230961859226
1685471929857721000,17.29972119140625,0,-0.0005585053586401045,0
1685471929877721000,17.31972119140625,-0.00041887903353199363,-0.0003665191470645368,-0.00041887903353199363
1685471929897721000,17.33972119140625,0.00029670598451048136,-0.0002617993741296232,-0.0005934119690209627
1685471929917721000,17.35972119140625,-0.0009250245057046413,-0.0009773843921720982,-0.0015009831404313445
1685471929937721000,17.37972119140625,-0.000017453292457503267,0.0008028514566831291,0.00027925267932005227
1685471929957721000,17.39972119140625,0.000017453292457503267,-0.0002617993741296232,-0.0005585053586401045
1685471929977721000,17.41972119140625,0.00040142572834156454,-0.0007853981805965304,-0.000715585018042475
1685471929997721000,17.43972119140625,0.0005235987482592463,0.00013962633966002613,-0.0005934119690209627
1685471930017721000,17.45972119140625,-0.00003490658491500653,0.00019198621157556772,0
1685471930037721000,17.47972119140625,-0.00041887903353199363,-0.0006632251315750182,-0.00045378561480902135
1685471930057721000,17.49972119140625,-0.00041887903353199363,-0.0007679448463022709,-0.0005235987482592463
1685471930077721000,17.51972119140625,-0.0002617993741296232,0.00038397242315113544,0.001343903481028974
1685471930097721000,17.53972119140625,0.00041887903353199363,-0.0003490658418741077,-0.00047123889089562
1685471930117721000,17.55972119140625,-0.00040142572834156454,-0.0007504915702156723,0.0003316125657875091
1685471930137721000,17.57972119140625,-0.0003665191470645368,-0.0010471974965184927,0.00010471975838299841
1685471930157721000,17.59972119140625,-0.00041887903353199363,0.00029670598451048136,0.0015882495790719986
1685471930177721000,17.61972119140625,-0.00041887903353199363,-0.0003316125657875091,-0.0007504915702156723
1685471930197721000,17.63972119140625,-0.00040142572834156454,0.000052359879191499203,-0.00038397242315113544
1685471930217721000,17.65972119140625,-0.00043633230961859226,-0.00024434609804302454,0.000052359879191499203
1685471930237721000,17.67972119140625,-0.0002617993741296232,-0.0005410520825535059,-0.0009250245057046413
1685471930257721000,17.69972119140625,-0.0004886921960860491,-0.00022689280740451068,-0.00003490658491500653
1685471930277721000,17.71972119140625,-0.00015707963029854,0.000052359879191499203,-0.0005759586347267032
1685471930297721000,17.73972119140625,-0.00015707963029854,-0.00041887903353199363,-0.00022689280740451068
1685471930317721000,17.75972119140625,-0.00020943951676599681,-0.0006457717972807586,0.00029670598451048136
1685471930337722600,17.77972265625,0.00013962633966002613,-0.000017453292457503267,-0.0006632251315750182
1685471930357721000,17.79972119140625,-0.000052359879191499203,0.00062831852119416,0.0007853981805965304
1685471930377721000,17.81972119140625,-0.00013962633966002613,0.00019198621157556772,0
1685471930397721000,17.83972119140625,-0.0006806784076616168,-0.00019198621157556772,0.0017278759041801095
1685471930417721000,17.85972119140625,0.00006981316983001307,-0.00003490658491500653,-0.00047123889089562
1685471930437721000,17.87972119140625,-0.00020943951676599681,-0.0007853981805965304,-0.00038397242315113544
1685471930457721000,17.89972119140625,-0.00038397242315113544,0.0010122909443452954,-0.0003490658418741077
1685471930477721000,17.91972119140625,-0.0008726646192371845,-0.00027925267932005227,0.00094247778179124
1685471930497721000,17.93972119140625,-0.00013962633966002613,0.00006981316983001307,-0.0008726646192371845
1685471930517721000,17.95972119140625,-0.000715585018042475,-0.00045378561480902135,0.000052359879191499203
1685471930537721000,17.97972119140625,0.00019198621157556772,0.0004886921960860491,0.0003665191470645368
1685471930557721000,17.99972119140625,0,-0.0009075712296180427,-0.0003316125657875091
1685471930577721000,18.01972119140625,-0.00013962633966002613,-0.00031415926059708,-0.00045378561480902135
1685471930597721000,18.03972119140625,0.00029670598451048136,0.00019198621157556772,-0.000052359879191499203
1685471930617721000,18.05972119140625,0.00015707963029854,-0.0013264502631500363,-0.0013089969288557768
1685471930637721000,18.07972119140625,-0.000715585018042475,0.0020769417751580477,-0.0002617993741296232
1685471930657721000,18.09972119140625,-0.0005235987482592463,-0.00019198621157556772,0.0012740903766825795
1685471930677721000,18.11972119140625,0.0003665191470645368,-0.0006108652451075613,-0.00043633230961859226
1685471930697721000,18.13972119140625,0.00012217304902151227,-0.001745329238474369,-0.0010995573829859495
1685471930717721000,18.15972119140625,0,-0.00027925267932005227,0
1685471930737721000,18.17972119140625,-0.0006632251315750182,-0.00024434609804302454,-0.00038397242315113544
1685471930757721000,18.19972119140625,-0.00003490658491500653,0.00010471975838299841,-0.00041887903353199363
1685471930777721000,18.21972119140625,-0.00040142572834156454,-0.00047123889089562,-0.0008552113431505859
1685471930797721000,18.23972119140625,-0.00038397242315113544,-0.00012217304902151227,0.0009773843921720982
1685471930817722600,18.25972265625,0.0005759586347267032,0.00003490658491500653,0.00019198621157556772
1685471930837721000,18.27972119140625,0.00038397242315113544,-0.0002617993741296232,-0.0002617993741296232
1685471930857721000,18.29972119140625,0.00006981316983001307,-0.0003490658418741077,0.0006457717972807586
1685471930877721000,18.31972119140625,0.00031415926059708,-0.0005235987482592463,-0.00062831852119416
1685471930897721000,18.33972119140625,-0.00019198621157556772,0.00019198621157556772,0.00012217304902151227
1685471930917722600,18.35972265625,0.000052359879191499203,0.00012217304902151227,-0.00012217304902151227
1685471930937721000,18.37972119140625,0.00010471975838299841,-0.0008552113431505859,-0.0008203047327697277
1685471930957721000,18.39972119140625,-0.00010471975838299841,-0.00029670598451048136,-0.0006457717972807586
1685471930977721000,18.41972119140625,0.0005759586347267032,-0.00008726646046852693,-0.0015358896926045418
1685471930997721000,18.43972119140625,0.000017453292457503267,-0.00017453292093705386,0.00008726646046852693
1685471931017721000,18.45972119140625,0.000052359879191499203,0.00038397242315113544,0.0009250245057046413
1685471931037721000,18.47972119140625,0.00027925267932005227,-0.00012217304902151227,0.0003490658418741077
1685471931057721000,18.49972119140625,-0.00013962633966002613,0.00003490658491500653,-0.00019198621157556772
1685471931077721000,18.51972119140625,0.00020943951676599681,-0.00020943951676599681,-0.0005061454721726477
1685471931097721000,18.53972119140625,-0.0005235987482592463,-0.00010471975838299841,0.0005235987482592463
1685471931117721000,18.55972119140625,0.00027925267932005227,-0.00031415926059708,0.0013613568153232336
1685471931137721000,18.57972119140625,-0.0002617993741296232,0.00015707963029854,0.0003665191470645368
1685471931157721000,18.59972119140625,-0.000052359879191499203,0.00038397242315113544,-0.0006981316837482154
1685471931177721000,18.61972119140625,0.0005235987482592463,-0.0006108652451075613,-0.000715585018042475
1685471931197721000,18.63972119140625,-0.00012217304902151227,0.00022689280740451068,-0.00047123889089562
1685471931217721000,18.65972119140625,-0.00006981316983001307,-0.00027925267932005227,-0.00013962633966002613
1685471931237721000,18.67972119140625,-0.00006981316983001307,0.0005410520825535059,-0.00022689280740451068
1685471931257721000,18.69972119140625,-0.00041887903353199363,0.0008377580670639873,0.00020943951676599681
1685471931277721000,18.71972119140625,0.00019198621157556772,0.00013962633966002613,0.0005410520825535059
1685471931297721000,18.73972119140625,-0.00015707963029854,-0.000017453292457503267,-0.000017453292457503267
1685471931317721000,18.75972119140625,0.0003316125657875091,-0.00019198621157556772,-0.00008726646046852693
1685471931337721000,18.77972119140625,0.00027925267932005227,-0.0008028514566831291,0.000052359879191499203
1685471931357721000,18.79972119140625,0.00043633230961859226,-0.00094247778179124,0.0002617993741296232
1685471931377721000,18.81972119140625,0.00031415926059708,0.000052359879191499203,0.00006981316983001307
1685471931397721000,18.83972119140625,-0.0005410520825535059,0.00013962633966002613,-0.00024434609804302454
1685471931417721000,18.85972119140625,-0.00015707963029854,0.00013962633966002613,0.0005410520825535059
1685471931437721000,18.87972119140625,0.0008552113431505859,0.0013613568153232336,0.0009075712296180427
1685471931457721000,18.89972119140625,-0.000052359879191499203,0.00062831852119416,0.00020943951676599681
1685471931477721000,18.91972119140625,-0.0006108652451075613,0.00008726646046852693,-0.00045378561480902135
1685471931497721000,18.93972119140625,0.00043633230961859226,0.00013962633966002613,0.00029670598451048136
1685471931517721000,18.95972119140625,-0.00041887903353199363,0.001518436474725604,-0.000017453292457503267
1685471931537721000,18.97972119140625,-0.00003490658491500653,-0.00027925267932005227,0.0005759586347267032
1685471931557721000,18.99972119140625,0.00017453292093705386,-0.0003665191470645368,-0.0015358896926045418
1685471931577721000,19.01972119140625,0.00040142572834156454,-0.00017453292093705386,0.0005934119690209627
1685471931597721000,19.03972119140625,0.00006981316983001307,0.0006632251315750182,-0.0003490658418741077
1685471931617721000,19.05972119140625,0.0004886921960860491,-0.00024434609804302454,0.00019198621157556772
1685471931637721000,19.07972119140625,-0.00006981316983001307,0.00040142572834156454,0.0013962633674964309
1685471931657721000,19.09972119140625,0.0003316125657875091,-0.0008901178953237832,-0.0011519172694534063
1685471931677721000,19.11972119140625,0,-0.00008726646046852693,-0.000017453292457503267
1685471931697721000,19.13972119140625,-0.00043633230961859226,0.0009948377264663577,0.0008028514566831291
1685471931717721000,19.15972119140625,-0.00019198621157556772,0.0005235987482592463,-0.0006108652451075613
1685471931737721000,19.17972119140625,0.00006981316983001307,-0.000052359879191499203,0.00017453292093705386
1685471931757721000,19.19972119140625,0.00047123889089562,0.00031415926059708,0.00094247778179124
1685471931777721000,19.21972119140625,-0.00041887903353199363,0.00027925267932005227,-0.00013962633966002613
1685471931797721000,19.23972119140625,-0.0006806784076616168,0.0003316125657875091,0.00020943951676599681
1685471931817721000,19.25972119140625,0,0.00040142572834156454,-0.0002617993741296232
1685471931837721000,19.27972119140625,-0.00040142572834156454,0.00020943951676599681,0.0009773843921720982
1685471931857721000,19.29972119140625,-0.000715585018042475,-0.0006981316837482154,-0.000017453292457503267
1685471931877721000,19.31972119140625,0.00012217304902151227,-0.001117010717280209,-0.00015707963029854
1685471931897721000,19.33972119140625,-0.00006981316983001307,-0.0008726646192371845,-0.00010471975838299841
1685471931917721000,19.35972119140625,0.00017453292093705386,0.00045378561480902135,0.00043633230961859226
1685471931937721000,19.37972119140625,-0.00040142572834156454,-0.0009250245057046413,-0.0005585053586401045
1685471931957721000,19.39972119140625,-0.00024434609804302454,0.0006806784076616168,-0.0006981316837482154
1685471931977721000,19.41972119140625,-0.00038397242315113544,0.0003316125657875091,-0.0002617993741296232
1685471931997721000,19.43972119140625,-0.0003665191470645368,-0.00024434609804302454,-0.00020943951676599681
1685471932017721000,19.45972119140625,0.0005061454721726477,0.0005934119690209627,0.0007330382941290736
1685471932037721000,19.47972119140625,0.00031415926059708,0.00031415926059708,-0.00015707963029854
1685471932057721000,19.49972119140625,-0.000052359879191499203,0.0005585053586401045,0.0013613568153232336
1685471932077721000,19.51972119140625,0.00027925267932005227,-0.0007330382941290736,-0.00008726646046852693
1685471932097721000,19.53972119140625,0.00003490658491500653,-0.0014486232539638877,-0.0006632251315750182
1685471932117721000,19.55972119140625,-0.00019198621157556772,0.00043633230961859226,0.00043633230961859226
1685471932137721000,19.57972119140625,0.00017453292093705386,-0.00022689280740451068,-0.0006632251315750182
1685471932157721000,19.59972119140625,-0.00012217304902151227,0.00017453292093705386,-0.00047123889089562
1685471932177721000,19.61972119140625,-0.0003490658418741077,-0.0006632251315750182,-0.0004886921960860491
1685471932197721000,19.63972119140625,0.00010471975838299841,-0.00010471975838299841,-0.001029744278639555
1685471932217721000,19.65972119140625,0.00012217304902151227,0.00041887903353199363,0.00012217304902151227
1685471932237721000,19.67972119140625,0.00047123889089562,-0.0003490658418741077,-0.00006981316983001307
1685471932257721000,19.69972119140625,0.0005061454721726477,0.0015358896926045418,0.0007330382941290736
1685471932277721000,19.71972119140625,0.00041887903353199363,-0.00015707963029854,-0.00031415926059708
1685471932297721000,19.73972119140625,0.00019198621157556772,-0.00047123889089562,0.0007504915702156723
1685471932317721000,19.75972119140625,0.00015707963029854,0.000017453292457503267,-0.00010471975838299841
1685471932337721000,19.77972119140625,0.00038397242315113544,-0.0009250245057046413,-0.00008726646046852693
1685471932357721000,19.79972119140625,-0.0004886921960860491,-0.00013962633966002613,-0.0008028514566831291
1685471932377721000,19.81972119140625,0.000052359879191499203,-0.0003316125657875091,-0.00024434609804302454
1685471932397721000,19.83972119140625,0.00003490658491500653,0.001117010717280209,0.0017104226863011718
1685471932417721000,19.85972119140625,0.000017453292457503267,-0.0003490658418741077,-0.00043633230961859226
1685471932437721000,19.87972119140625,0.00031415926059708,-0.0009075712296180427,0
1685471932457721000,19.89972119140625,0.00015707963029854,-0.0012915435945615172,-0.00062831852119416
1685471932477721000,19.91972119140625,-0.000715585018042475,-0.00041887903353199363,0.00017453292093705386
1685471932497721000,19.93972119140625,0.0005235987482592463,0.00015707963029854,-0.00017453292093705386
1685471932517721000,19.95972119140625,0.00020943951676599681,-0.00031415926059708,-0.00029670598451048136
1685471932537721000,19.97972119140625,0.0006457717972807586,-0.000052359879191499203,-0.00045378561480902135
1685471932557721000,19.99972119140625,0.0008901178953237832,0.0003665191470645368,-0.0003316125657875091
1685471932577721000,20.01972119140625,0.000052359879191499203,-0.000052359879191499203,0.0006806784076616168
1685471932597721000,20.03972119140625,-0.00017453292093705386,0.0003490658418741077,-0.00029670598451048136
1685471932617721000,20.05972119140625,0.00010471975838299841,0.0009948377264663577,0.0005061454721726477
1685471932637721000,20.07972119140625,-0.0003665191470645368,-0.0005759586347267032,-0.0004886921960860491
1685471932657721000,20.09972119140625,-0.0006457717972807586,0.00017453292093705386,-0.00017453292093705386
1685471932677721000,20.11972119140625,-0.00019198621157556772,-0.00094247778179124,-0.0009773843921720982
1685471932697721000,20.13972119140625,0.00010471975838299841,0.00003490658491500653,-0.00010471975838299841
1685471932717721000,20.15972119140625,0.00031415926059708,0.0007679448463022709,0.0007330382941290736
1685471932737721000,20.17972119140625,0.00029670598451048136,0.0005061454721726477,-0.0003665191470645368
1685471932757721000,20.19972119140625,0.00047123889089562,0.0005585053586401045,0.0002617993741296232
1685471932777721000,20.21972119140625,-0.00012217304902151227,0.00041887903353199363,0.0008203047327697277
1685471932797721000,20.23972119140625,-0.00015707963029854,0.00003490658491500653,0.00022689280740451068
1685471932817722600,20.25972265625,0.0003665191470645368,0.00010471975838299841,-0.0005934119690209627
1685471932837721000,20.27972119140625,-0.00012217304902151227,-0.00094247778179124,0.00008726646046852693
1685471932857721000,20.29972119140625,0.0003665191470645368,0.00019198621157556772,-0.00022689280740451068
1685471932877721000,20.31972119140625,0.00008726646046852693,0.00008726646046852693,-0.0008203047327697277
1685471932897721000,20.33972119140625,0,0.0007679448463022709,0.0007679448463022709
1685471932917721000,20.35972119140625,0.0003665191470645368,-0.0008203047327697277,0.00010471975838299841
1685471932937721000,20.37972119140625,-0.00008726646046852693,0.0010995573829859495,-0.00043633230961859226
1685471932957721000,20.39972119140625,0.00010471975838299841,0.00041887903353199363,0.00024434609804302454
1685471932977721000,20.41972119140625,0.0011693706037476659,-0.00003490658491500653,-0.0005585053586401045
1685471932997721000,20.43972119140625,-0.00041887903353199363,-0.0006108652451075613,-0.0010646508308127522
1685471933017721000,20.45972119140625,-0.00041887903353199363,0.00006981316983001307,-0.0006806784076616168
1685471933037721000,20.47972119140625,0.0006806784076616168,0.00020943951676599681,0.00022689280740451068
1685471933057721000,20.49972119140625,-0.0002617993741296232,-0.00012217304902151227,-0.00029670598451048136
1685471933077721000,20.51972119140625,-0.00040142572834156454,0.0005585053586401045,0.00041887903353199363
1685471933097721000,20.53972119140625,0,-0.00019198621157556772,0.0009250245057046413
1685471933117721000,20.55972119140625,-0.0008726646192371845,0.0005235987482592463,0.0008028514566831291
1685471933137721000,20.57972119140625,0,0.0006108652451075613,-0.0015358896926045418
1685471933157721000,20.59972119140625,-0.00040142572834156454,0.0011693706037476659,0.00008726646046852693
1685471933177721000,20.61972119140625,0.0006108652451075613,0.00003490658491500653,0.00027925267932005227
1685471933197721000,20.63972119140625,0.00003490658491500653,-0.0003316125657875091,-0.0006806784076616168
1685471933217721000,20.65972119140625,-0.00015707963029854,-0.0003490658418741077,-0.00012217304902151227
1685471933237721000,20.67972119140625,-0.00008726646046852693,-0.00022689280740451068,0
1685471933257721000,20.69972119140625,0.0006981316837482154,0.0007330382941290736,0.0008901178953237832
1685471933277721000,20.71972119140625,-0.00038397242315113544,-0.00020943951676599681,-0.00006981316983001307
1685471933297721000,20.73972119140625,-0.00008726646046852693,0.0007853981805965304,-0.00012217304902151227
1685471933317721000,20.75972119140625,-0.0005410520825535059,-0.0003316125657875091,-0.0003490658418741077
1685471933337721000,20.77972119140625,0.00045378561480902135,-0.00027925267932005227,0.00020943951676599681
1685471933357721000,20.79972119140625,-0.00012217304902151227,0.0003490658418741077,0
1685471933377721000,20.81972119140625,-0.00031415926059708,0.0009948377264663577,-0.00020943951676599681
1685471933397721000,20.83972119140625,-0.0005061454721726477,-0.0003665191470645368,-0.0005410520825535059
1685471933417721000,20.85972119140625,0.00013962633966002613,0,-0.0008552113431505859
1685471933437721000,20.87972119140625,0.00040142572834156454,0.0010995573829859495,0.0016755161341279745
1685471933457721000,20.89972119140625,-0.00041887903353199363,-0.00022689280740451068,0.0007853981805965304
1685471933477721000,20.91972119140625,0.00022689280740451068,-0.000017453292457503267,-0.00045378561480902135
1685471933497721000,20.93972119140625,-0.00041887903353199363,0.00043633230961859226,-0.0005061454721726477
1685471933517721000,20.95972119140625,-0.00040142572834156454,-0.00010471975838299841,-0.00010471975838299841
1685471933537721000,20.97972119140625,0.0006457717972807586,0.00008726646046852693,-0.0008726646192371845
1685471933557722600,20.99972265625,0.00003490658491500653,-0.0006632251315750182,-0.0011519172694534063
1685471933577721000,21.01972119140625,0.00015707963029854,-0.0003490658418741077,0.0007504915702156723
1685471933597721000,21.03972119140625,0.00012217304902151227,-0.0005410520825535059,-0.00024434609804302454
1685471933617721000,21.05972119140625,0.00010471975838299841,0.00024434609804302454,0.0002617993741296232
1685471933637721000,21.07972119140625,-0.00015707963029854,0.0011868239380419254,-0.00031415926059708
1685471933657721000,21.09972119140625,-0.0003490658418741077,0,-0.0005759586347267032
1685471933677721000,21.11972119140625,0.00031415926059708,0.00015707963029854,-0.00041887903353199363
1685471933697721000,21.13972119140625,-0.0006981316837482154,-0.0006108652451075613,0.000052359879191499203
1685471933717721000,21.15972119140625,0.0003490658418741077,-0.00041887903353199363,-0.0012042771559208632
1685471933737721000,21.17972119140625,-0.0003316125657875091,-0.0008901178953237832,-0.00027925267932005227
1685471933757721000,21.19972119140625,0,-0.0003665191470645368,0.00031415926059708
1685471933777721000,21.21972119140625,-0.0002617993741296232,0.00029670598451048136,-0.00027925267932005227
1685471933797721000,21.23972119140625,0.0010821041651070118,-0.0007853981805965304,-0.0008028514566831291
1685471933817722600,21.25972265625,-0.00015707963029854,-0.0005410520825535059,-0.00012217304902151227
1685471933837721000,21.27972119140625,-0.00006981316983001307,0.0005235987482592463,-0.0003665191470645368
1685471933857722600,21.29972265625,-0.0006457717972807586,0.00017453292093705386,0.00031415926059708
1685471933877721000,21.31972119140625,0.00062831852119416,0.0008028514566831291,0.00010471975838299841
1685471933897721000,21.33972119140625,0,-0.0005759586347267032,-0.0003316125657875091
1685471933917722600,21.35972265625,-0.00040142572834156454,-0.0011344640515744686,-0.0008726646192371845
1685471933937721000,21.37972119140625,-0.000017453292457503267,0,0.00094247778179124
1685471933957721000,21.39972119140625,0.00003490658491500653,0.00125663704238832,0.0013962633674964309
1685471933977721000,21.41972119140625,0.0005410520825535059,0.00017453292093705386,-0.00003490658491500653
1685471933997721000,21.43972119140625,0.00013962633966002613,0.0005934119690209627,0.00006981316983001307
1685471934017721000,21.45972119140625,-0.00043633230961859226,0.0005061454721726477,0.00008726646046852693
1685471934037721000,21.47972119140625,0.00038397242315113544,-0.0010821041651070118,0.0003316125657875091
1685471934057721000,21.49972119140625,-0.00019198621157556772,-0.0005934119690209627,-0.0005410520825535059
1685471934077721000,21.51972119140625,-0.00040142572834156454,-0.0007330382941290736,-0.0007330382941290736
1685471934097721000,21.53972119140625,0.00013962633966002613,0.0013089969288557768,0.00017453292093705386
1685471934117721000,21.55972119140625,-0.00019198621157556772,-0.00027925267932005227,-0.0011868239380419254
1685471934137721000,21.57972119140625,0.0006981316837482154,-0.00017453292093705386,0.00008726646046852693
1685471934157721000,21.59972119140625,-0.00010471975838299841,0.0005759586347267032,-0.0009075712296180427
1685471934177721000,21.61972119140625,-0.00043633230961859226,-0.00029670598451048136,-0.0016231562476605177
1685471934197721000,21.63972119140625,-0.00013962633966002613,-0.0006457717972807586,0.00027925267932005227
1685471934217721000,21.65972119140625,-0.0003490658418741077,0.00013962633966002613,-0.0003665191470645368
1685471934237721000,21.67972119140625,0.00017453292093705386,-0.00003490658491500653,-0.0012391837080940604
1685471934257721000,21.69972119140625,-0.0003316125657875091,-0.00015707963029854,0.00003490658491500653
1685471934277722600,21.71972265625,-0.00040142572834156454,0.0012391837080940604,0.00041887903353199363
1685471934297721000,21.73972119140625,0.00047123889089562,-0.00041887903353199363,-0.00029670598451048136
1685471934317721000,21.75972119140625,0.00003490658491500653,-0.00045378561480902135,0.00029670598451048136
1685471934337721000,21.77972119140625,0,-0.00003490658491500653,-0.0008203047327697277
1685471934357721000,21.79972119140625,0.0005410520825535059,-0.00015707963029854,-0.0013264502631500363
1685471934377721000,21.81972119140625,0.0007504915702156723,0.00020943951676599681,0.0005410520825535059
1685471934397721000,21.83972119140625,0.0012391837080940604,0.001029744278639555,0.0008901178953237832
1685471934417721000,21.85972119140625,0.0005235987482592463,-0.00015707963029854,-0.0008203047327697277
1685471934437721000,21.87972119140625,0.00031415926059708,-0.00010471975838299841,0.00040142572834156454
1685471934457721000,21.89972119140625,-0.00006981316983001307,-0.0006108652451075613,-0.001518436474725604
1685471934477721000,21.91972119140625,0,-0.00038397242315113544,-0.00094247778179124
1685471934497721000,21.93972119140625,-0.00013962633966002613,-0.0006108652451075613,-0.00024434609804302454
1685471934517721000,21.95972119140625,-0.0002617993741296232,0.00027925267932005227,0.00024434609804302454
1685471934537721000,21.97972119140625,0.0006806784076616168,-0.0005061454721726477,-0.0006632251315750182
1685471934557721000,21.99972119140625,-0.00019198621157556772,0,0.00022689280740451068
1685471934577721000,22.01972119140625,-0.000052359879191499203,-0.00015707963029854,-0.0005934119690209627
1685471934597721000,22.03972119140625,-0.00024434609804302454,0.000052359879191499203,-0.0010646508308127522
1685471934617721000,22.05972119140625,-0.000017453292457503267,0.00019198621157556772,-0.0005759586347267032
1685471934637721000,22.07972119140625,-0.0003665191470645368,0.0012915435945615172,0.0008726646192371845
1685471934657721000,22.09972119140625,0.000017453292457503267,0.0007679448463022709,0.000017453292457503267
1685471934677721000,22.11972119140625,0.00022689280740451068,-0.0005061454721726477,-0.0015009831404313445
1685471934697721000,22.13972119140625,-0.00012217304902151227,-0.00012217304902151227,-0.00024434609804302454
1685471934717721000,22.15972119140625,-0.00003490658491500653,0.0008726646192371845,0.00003490658491500653
1685471934737721000,22.17972119140625,-0.0003665191470645368,0,0.00041887903353199363
1685471934757721000,22.19972119140625,-0.00031415926059708,0.00020943951676599681,0
1685471934777721000,22.21972119140625,0.000052359879191499203,0.00017453292093705386,0.000052359879191499203
1685471934797721000,22.23972119140625,0,-0.00008726646046852693,0.00006981316983001307
1685471934817721000,22.25972119140625,-0.00041887903353199363,0.00094247778179124,0.0005061454721726477
1685471934837721000,22.27972119140625,-0.00027925267932005227,0.0006108652451075613,0.00043633230961859226
1685471934857721000,22.29972119140625,-0.00041887903353199363,0.0009599310578778386,0.0004886921960860491
1685471934877721000,22.31972119140625,-0.0008028514566831291,0.00012217304902151227,0.00047123889089562
1685471934897721000,22.33972119140625,-0.00043633230961859226,0.0005759586347267032,0.00010471975838299841
1685471934917721000,22.35972119140625,0.00024434609804302454,0.000715585018042475,0.0006981316837482154
1685471934937721000,22.37972119140625,0.0003316125657875091,0.00045378561480902135,0.0006981316837482154
1685471934957721000,22.39972119140625,0.00003490658491500653,0.00022689280740451068,-0.0012217304902151227
1685471934977721000,22.41972119140625,-0.00031415926059708,-0.00008726646046852693,0.0003665191470645368
1685471934997721000,22.43972119140625,-0.00040142572834156454,-0.0008552113431505859,-0.00040142572834156454
1685471935017721000,22.45972119140625,0.0008901178953237832,-0.00008726646046852693,0.0011344640515744686
1685471935037721000,22.47972119140625,0.00041887903353199363,-0.00045378561480902135,-0.00040142572834156454
1685471935057721000,22.49972119140625,0.0006108652451075613,-0.0008552113431505859,-0.00031415926059708
1685471935077721000,22.51972119140625,-0.00043633230961859226,-0.00020943951676599681,0.0007679448463022709
1685471935097721000,22.53972119140625,-0.00008726646046852693,-0.0006632251315750182,0.0005235987482592463
1685471935117721000,22.55972119140625,0.000052359879191499203,0.00029670598451048136,0.0006632251315750182
1685471935137721000,22.57972119140625,-0.00031415926059708,0.00008726646046852693,-0.001343903481028974
1685471935157721000,22.59972119140625,0.00031415926059708,0.00027925267932005227,0.0007853981805965304
1685471935177721000,22.61972119140625,0,-0.001029744278639555,-0.0005759586347267032
1685471935197721000,22.63972119140625,0.0005585053586401045,-0.0003665191470645368,-0.0010821041651070118
1685471935217721000,22.65972119140625,-0.00013962633966002613,0.00020943951676599681,-0.0008203047327697277
1685471935237721000,22.67972119140625,-0.00017453292093705386,0.0006108652451075613,-0.000052359879191499203
1685471935257721000,22.69972119140625,-0.00031415926059708,-0.000017453292457503267,0.00041887903353199363
1685471935277721000,22.71972119140625,-0.0003316125657875091,0.00024434609804302454,-0.00031415926059708
1685471935297721000,22.73972119140625,-0.00012217304902151227,0.0005235987482592463,0.00003490658491500653
1685471935317721000,22.75972119140625,-0.00041887903353199363,0.000052359879191499203,-0.000052359879191499203
1685471935337721000,22.77972119140625,-0.00008726646046852693,-0.00003490658491500653,-0.00003490658491500653
1685471935357721000,22.79972119140625,0.00022689280740451068,-0.0005410520825535059,-0.00038397242315113544
1685471935377721000,22.81972119140625,-0.0005410520825535059,-0.000052359879191499203,-0.0002617993741296232
1685471935397721000,22.83972119140625,-0.0003490658418741077,-0.00029670598451048136,-0.0003490658418741077
1685471935417721000,22.85972119140625,0.0009250245057046413,-0.0007679448463022709,0.000052359879191499203
1685471935437721000,22.87972119140625,-0.00043633230961859226,0.00027925267932005227,-0.0005235987482592463
1685471935457722600,22.89972265625,0.00019198621157556772,0,0.00022689280740451068
1685471935477721000,22.91972119140625,0.000017453292457503267,-0.0005061454721726477,0.0002617993741296232
1685471935497721000,22.93972119140625,-0.00013962633966002613,-0.00022689280740451068,0
1685471935517721000,22.95972119140625,-0.00020943951676599681,0.00027925267932005227,-0.00015707963029854
1685471935537721000,22.97972119140625,0.0003316125657875091,0.00029670598451048136,0.0010122909443452954
1685471935557721000,22.99972119140625,-0.0002617993741296232,-0.0006981316837482154,-0.0007679448463022709
1685471935577721000,23.01972119140625,0,0.00006981316983001307,-0.00008726646046852693
1685471935597721000,23.03972119140625,0.00019198621157556772,-0.0005934119690209627,-0.000715585018042475
1685471935617721000,23.05972119140625,-0.0003665191470645368,-0.00015707963029854,0.00013962633966002613
1685471935637721000,23.07972119140625,-0.0003316125657875091,0.000017453292457503267,-0.0008203047327697277
1685471935657721000,23.09972119140625,-0.00043633230961859226,0.00019198621157556772,0.00043633230961859226
1685471935677721000,23.11972119140625,-0.00045378561480902135,0.00006981316983001307,-0.00019198621157556772
1685471935697721000,23.13972119140625,-0.00040142572834156454,0.0005759586347267032,-0.0003665191470645368
1685471935717721000,23.15972119140625,-0.00038397242315113544,-0.00027925267932005227,0.00022689280740451068
1685471935737721000,23.17972119140625,0.0003490658418741077,-0.00031415926059708,-0.00027925267932005227
