time,seconds_elapsed,z,y,x
1685471912636871400,0.078871337890625,9.83335018157959,-0.04158249497413635,-0.0042808325961232185
1685471912656871400,0.098871337890625,9.837620735168457,-0.04625597596168518,0.00804451759904623
1685471912676871400,0.118871337890625,9.805769920349121,-0.0510731115937233,-0.001455674646422267
1685471912696871400,0.138871337890625,9.825803756713867,-0.032972946763038635,-0.010409989394247532
1685471912716871400,0.158871337890625,9.827049255371094,-0.0502399280667305,-0.002413355279713869
1685471912736871400,0.178871337890625,9.826981544494629,-0.04056735336780548,0.0010534487664699554
1685471912756871400,0.198871337890625,9.819023132324219,-0.02952529489994049,0.006521805189549923
1685471912776871400,0.218871337890625,9.81743335723877,-0.047098737210035324,-0.009758765809237957
1685471912796871400,0.238871337890625,9.81596851348877,-0.03643017262220383,0.002269703196361661
1685471912816871400,0.258871337890625,9.812779426574707,-0.03703351318836212,0.0017046716529875994
1685471912836871400,0.278871337890625,9.809734344482422,-0.03916914016008377,0.008350975811481476
1685471912856871400,0.298871337890625,9.814638137817383,-0.04019385948777199,-0.005803545005619526
1685471912876870000,0.318869873046875,9.812711715698242,-0.03599921613931656,0.0054587796330451965
1685471912896870000,0.338869873046875,9.806429862976074,-0.03440946713089943,0.004769249819219112
1685471912916870000,0.358869873046875,9.796163558959961,-0.049703627824783325,0.005583278369158506
1685471912936870000,0.378869873046875,9.809350967407227,-0.044493842869997025,0.004865017719566822
1685471912956870000,0.398869873046875,9.815423011779785,-0.04810430109500885,0.012650961987674236
1685471912976871400,0.418871337890625,9.820612907409668,-0.034821268171072006,0.012612654827535152
1685471912996871400,0.438871337890625,9.819559097290039,-0.041103653609752655,0.0055641247890889645
1685471913016871400,0.458871337890625,9.816686630249023,-0.04376600682735443,0.0060429647564888
1685471913036871400,0.478871337890625,9.809149742126465,-0.031268272548913956,0.001637633889913559
1685471913056871400,0.498871337890625,9.816638946533203,-0.04031835496425629,0.015073893591761589
1685471913076871400,0.518871337890625,9.812520980834961,-0.04118984565138817,0.001599326729774475
1685471913096871400,0.538871337890625,9.807550430297852,-0.04526956379413605,-0.0063685765489935875
1685471913116870000,0.558869873046875,9.806036949157715,-0.04733815789222717,0.0018291701562702656
1685471913136871400,0.578871337890625,9.829270362854004,-0.04578671231865883,-0.006512228399515152
1685471913156870000,0.598869873046875,9.811917304992676,-0.020580556243658066,-0.0007278373232111335
1685471913176870000,0.618869873046875,9.814512252807617,-0.03854664787650108,0.0042999861761927605
1685471913196871400,0.638871337890625,9.815576553344727,-0.030109480023384094,0.00619619432836771
1685471913216870000,0.658869873046875,9.812232971191406,-0.03794331103563309,-0.005248090252280235
1685471913236870000,0.678869873046875,9.824874877929688,-0.03691859170794487,0.004443638492375612
1685471913256870000,0.698869873046875,9.806832313537598,-0.04189852997660637,-0.0035913025494664907
1685471913276871400,0.718871337890625,9.811237335205078,-0.02952529489994049,0.016242263838648796
1685471913296870000,0.738869873046875,9.820651054382324,-0.03903506323695183,-0.0031316159293055534
1685471913316870000,0.758869873046875,9.816696166992188,-0.04832456633448601,0.013034033589065075
1685471913336870000,0.778869873046875,9.815585136413574,-0.03336559608578682,0.006320692598819733
1685471913356870000,0.798869873046875,9.808555603027344,-0.030061595141887665,0.000814028549939394
1685471913376871400,0.818871337890625,9.803805351257324,-0.04149630293250084,-0.007680599112063646
1685471913396870000,0.838869873046875,9.806821823120117,-0.043258439749479294,-0.0024803930427879095
1685471913416870000,0.858869873046875,9.795445442199707,-0.03743573650717735,-0.00452025281265378
1685471913436870000,0.878869873046875,9.802206039428711,-0.0522606335580349,0.0019919758196920156
1685471913456870000,0.898869873046875,9.806391716003418,-0.056340355426073074,-0.0007852981798350811
1685471913476871400,0.918871337890625,9.798041343688965,-0.033662475645542145,-0.0027964275795966387
1685471913496871400,0.938871337890625,9.799027442932129,-0.04381389170885086,0.0076327151618897915
1685471913516870000,0.958869873046875,9.805960655212402,-0.026029760017991066,-0.0006033388199284673
1685471913536870000,0.978869873046875,9.803201675415039,-0.023654712364077568,0.005363011732697487
1685471913556870000,0.998869873046875,9.804983139038086,-0.04585375264286995,-0.008274360559880733
1685471913576870000,1.018869873046875,9.791508674621582,-0.03604710102081299,0.017688361927866936
1685471913596871400,1.038871337890625,9.802350997924805,-0.04879382997751236,-0.0003543418715707958
1685471913616871400,1.058871337890625,9.797629356384277,-0.030703242868185043,-0.007067683152854443
1685471913636870000,1.078869873046875,9.810088157653809,-0.048449065536260605,-0.017113754525780678
1685471913656870000,1.098869873046875,9.811370849609375,-0.02891238033771515,0.01308191753923893
1685471913676870000,1.118869873046875,9.80446720123291,-0.029965827241539955,0.012038045562803745
1685471913696870000,1.138869873046875,9.800932884216309,-0.037905003875494,-0.016711529344320297
1685471913716870000,1.158869873046875,9.793060302734375,-0.04183149337768555,-0.0012449849164113402
1685471913736871400,1.178871337890625,9.805204391479492,-0.04364151135087013,0.004548983182758093
1685471913756871400,1.198871337890625,9.811725616455078,-0.04611232504248619,-0.010850521735846996
1685471913776871400,1.218871337890625,9.81362247467041,-0.04178360849618912,0.010563218034803867
1685471913796870000,1.238869873046875,9.801909446716309,-0.02478477731347084,0.0051044379360973835
1685471913816870000,1.258869873046875,9.813363075256348,-0.04014597460627556,0.0034763808362185955
1685471913836868400,1.278868408203125,9.80575942993164,-0.04251144453883171,-0.0026048915460705757
1685471913856870000,1.298869873046875,9.802464485168457,-0.02945825830101967,-0.01687433384358883
1685471913876870000,1.318869873046875,9.799782752990723,-0.02758120372891426,0.000641646038275212
1685471913896870000,1.338869873046875,9.796585083007812,-0.02912306971848011,-0.002892195712774992
1685471913916870000,1.358869873046875,9.806612014770508,-0.03468719497323036,0.005085284356027842
1685471913936870000,1.378869873046875,9.792390823364258,-0.03928406164050102,-0.000957680691499263
1685471913956870000,1.398869873046875,9.816266059875488,-0.03580768033862114,0.0035146879963576794
1685471913976870000,1.418869873046875,9.808517456054688,-0.041084498167037964,0.013618219643831253
1685471913996870000,1.438869873046875,9.804524421691895,-0.03730166330933571,0.0043766009621322155
1685471914016870000,1.458869873046875,9.802398681640625,-0.025847801938652992,0.004098873119801283
1685471914036870000,1.478869873046875,9.816313743591309,-0.03359543904662132,0.0029688100330531597
1685471914056870000,1.498869873046875,9.797867774963379,-0.0328197181224823,-0.0031411927193403244
1685471914076870000,1.518869873046875,9.80456256866455,-0.03232172504067421,0.004022258799523115
1685471914096870000,1.538869873046875,9.808087348937988,-0.042616792023181915,-0.006100425496697426
1685471914116870000,1.558869873046875,9.802713394165039,-0.039772480726242065,0.004319139756262302
1685471914136870000,1.578869873046875,9.80725383758545,-0.038307227194309235,0.010228029452264309
1685471914156870000,1.598869873046875,9.806764602661133,-0.0296210628002882,-0.0015897499397397041
1685471914176870000,1.618869873046875,9.814416885375977,-0.03634398430585861,0.01661575958132744
1685471914196870000,1.638869873046875,9.786003112792969,-0.043804313987493515,0.005133168306201696
1685471914216870000,1.658869873046875,9.793874740600586,-0.030559591948986053,-0.005334281362593174
1685471914236870000,1.678869873046875,9.804112434387207,-0.03714843466877937,-0.003227383829653263
1685471914256870000,1.698869873046875,9.796460151672363,-0.03514688089489937,0.0005458780215121806
1685471914276871400,1.718871337890625,9.807684898376465,-0.037742193788290024,-0.0031794998794794083
1685471914296870000,1.738869873046875,9.800492286682129,-0.04639005288481712,-0.01459505409002304
1685471914316870000,1.758869873046875,9.803413391113281,-0.047453079372644424,-0.008303090929985046
1685471914336871400,1.778871337890625,9.80571174621582,-0.03784754127264023,-0.001139639993198216
1685471914356870000,1.798869873046875,9.78504467010498,-0.03653552010655403,0.008370129391551018
1685471914376870000,1.818869873046875,9.794889450073242,-0.048401180654764175,-0.002403778489679098
1685471914396870000,1.838869873046875,9.8026762008667,-0.029295451939105988,-0.006387730129063129
1685471914416870000,1.858869873046875,9.799774169921875,-0.03539587929844856,0.011032480746507645
1685471914436870000,1.878869873046875,9.80418872833252,-0.018444929271936417,0.021356279030442238
1685471914456870000,1.898869873046875,9.79753303527832,-0.039609674364328384,-0.008092401549220085
1685471914476870000,1.918869873046875,9.795320510864258,-0.030741550028324127,0.008264783769845963
1685471914496870000,1.938869873046875,9.787515640258789,-0.03243664652109146,0.00804451759904623
1685471914516870000,1.958869873046875,9.805367469787598,-0.031124621629714966,-0.008226476609706879
1685471914536870000,1.978869873046875,9.789756774902344,-0.04697423428297043,0.011224017478525639
1685471914556870000,1.998869873046875,9.799678802490234,-0.04289451614022255,0.004769249819219112
1685471914576870000,2.018869873046875,9.804017066955566,-0.0348404236137867,0.0056407395750284195
1685471914596870000,2.038869873046875,9.808977127075195,-0.04469495639204979,0.00694318488240242
1685471914616870000,2.058869873046875,9.79322338104248,-0.04746265336871147,0.00978749617934227
1685471914636870000,2.078869873046875,9.804265975952148,-0.038211461156606674,0.002221819246187806
1685471914656870000,2.098869873046875,9.809398651123047,-0.040155552327632904,0.0043861777521669865
1685471914676870000,2.118869873046875,9.816150665283203,-0.024037783965468407,0.00584185216575861
1685471914696870000,2.138869873046875,9.815881729125977,-0.027246015146374702,0.004395754542201757
1685471914716870000,2.158869873046875,9.805893898010254,-0.028194118291139603,0.014748282730579376
1685471914736870000,2.178869873046875,9.804591178894043,-0.03384443745017052,0.0053917421028018
1685471914756870000,2.198869873046875,9.794133186340332,-0.045250412076711655,0.0011683704797178507
1685471914776870000,2.218869873046875,9.790953636169434,-0.03712927922606468,0.008504204452037811
1685471914796870000,2.238869873046875,9.784153938293457,-0.03213976323604584,0.0006895300466567278
1685471914816870000,2.258869873046875,9.816829681396484,-0.04377558454871178,0.0012162544298917055
1685471914836870000,2.278869873046875,9.803470611572266,-0.036813244223594666,0.003840299556031823
1685471914856870000,2.298869873046875,9.795138359069824,-0.035012807697057724,-0.0005458780215121806
1685471914876870000,2.318869873046875,9.78615665435791,-0.05495171621441841,0.0054683564230799675
1685471914896870000,2.338869873046875,9.797082901000977,-0.04289451614022255,0.00794874969869852
1685471914916870000,2.358869873046875,9.801460266113281,-0.045154642313718796,0.004932055249810219
1685471914936870000,2.378869873046875,9.810844421386719,-0.042214564979076385,-0.004261679016053677
1685471914956870000,2.398869873046875,9.807061195373535,-0.03865199163556099,0.0007757213898003101
1685471914976871400,2.418871337890625,9.799036026000977,-0.031153352931141853,0.006244078278541565
1685471914996870000,2.438869873046875,9.796058654785156,-0.03253241255879402,-0.000823605339974165
1685471915016870000,2.458869873046875,9.803805351257324,-0.03019567020237446,-0.006138733588159084
1685471915036870000,2.478869873046875,9.807100296020508,-0.035156454890966415,0.011022903956472874
1685471915056870000,2.498869873046875,9.79922866821289,-0.04847779497504234,-0.004702212288975716
1685471915076870000,2.518869873046875,9.799745559692383,-0.040222588926553726,0.0006703764665871859
1685471915096870000,2.538869873046875,9.793807983398438,-0.026671407744288445,0.001283292076550424
1685471915116870000,2.558869873046875,9.80642032623291,-0.04307647794485092,0.00814028549939394
1685471915136870000,2.578869873046875,9.809494018554688,-0.04031835496425629,0.014068328775465488
1685471915156870000,2.598869873046875,9.787008285522461,-0.034533966332674026,-0.017123330384492874
1685471915176870000,2.618869873046875,9.791298866271973,-0.033423058688640594,0.0012737152865156531
1685471915196870000,2.638869873046875,9.797005653381348,-0.02151908539235592,0.0021739350631833076
1685471915216870000,2.658869873046875,9.807234764099121,-0.03637271001935005,0.003859453136101365
1685471915236870000,2.678869873046875,9.803077697753906,-0.03967671096324921,0.008312667720019817
1685471915256870000,2.698869873046875,9.80703353881836,-0.032762255519628525,0.007929596118628979
1685471915276870000,2.718869873046875,9.789631843566895,-0.024277204647660255,0.009414001367986202
1685471915296870000,2.738869873046875,9.798577308654785,-0.04817133769392967,0.0039264908991754055
1685471915316870000,2.758869873046875,9.807827949523926,-0.03439031168818474,0.005353434942662716
1685471915336870000,2.778869873046875,9.810097694396973,-0.041716571897268295,0.016692375764250755
1685471915356870000,2.798869873046875,9.80668830871582,-0.01248815655708313,0.003888183506205678
1685471915376870000,2.818869873046875,9.803767204284668,-0.03728250786662102,-0.005880159325897694
1685471915396870000,2.838869873046875,9.804036140441895,-0.033518824726343155,0.007498639635741711
1685471915416870000,2.858869873046875,9.788348197937012,-0.031201235949993134,0.0035338415764272213
1685471915436870000,2.878869873046875,9.837220191955566,-0.039303213357925415,0.0010055646998807788
1685471915456870000,2.898869873046875,9.791691780090332,-0.025100810453295708,-0.03106716088950634
1685471915476870000,2.918869873046875,9.831300735473633,-0.030214823782444,-0.00784340500831604
1685471915496870000,2.938869873046875,9.774663925170898,-0.033356018364429474,-0.011089942418038845
1685471915516870000,2.958869873046875,9.804696083068848,-0.031526848673820496,-0.0020207061897963285
1685471915536870000,2.978869873046875,9.786174774169922,-0.03902548551559448,0.009969456121325493
1685471915556870000,2.998869873046875,9.800320625305176,-0.027667393907904625,-0.0035338415764272213
1685471915576870000,3.018869873046875,9.803096771240234,-0.031268272548913956,-0.006550535559654236
1685471915596870000,3.038869873046875,9.792036056518555,-0.049895163625478745,-0.0117890490218997
1685471915616870000,3.058869873046875,9.796173095703125,-0.0325898751616478,0.007900865748524666
1685471915636870000,3.078869873046875,9.805319786071777,-0.02166273631155491,0.001283292076550424
1685471915656870000,3.098869873046875,9.803384780883789,-0.044943954795598984,0.01673068292438984
1685471915676870000,3.118869873046875,9.799141883850098,-0.026154259219765663,0.0013982137897983193
1685471915696870000,3.138869873046875,9.802225112915039,-0.03606625273823738,0.012105083093047142
1685471915716870000,3.158869873046875,9.799284934997559,-0.0299754049628973,0.0027198130264878273
1685471915736870000,3.178869873046875,9.793050765991211,-0.03691859170794487,0.007958326488733292
1685471915756870000,3.198869873046875,9.798089027404785,-0.03180457651615143,0.004903324879705906
1685471915776870000,3.218869873046875,9.794534683227539,-0.03680367022752762,-0.009643844328820705
1685471915796870000,3.238869873046875,9.790532112121582,-0.029745562002062798,-0.008983044885098934
1685471915816870000,3.258869873046875,9.788224220275879,-0.04012681916356087,-0.007766790222376585
1685471915836870000,3.278869873046875,9.788732528686523,-0.038996756076812744,0.0005171475349925458
1685471915856870000,3.298869873046875,9.786970138549805,-0.032197222113609314,0.01079306099563837
1685471915876870000,3.318869873046875,9.794602394104004,-0.04881298542022705,-0.005324704572558403
1685471915896870000,3.338869873046875,9.804255485534668,-0.042741287499666214,-0.0025091234128922224
1685471915916870000,3.358869873046875,9.79531192779541,-0.03324109688401222,-0.0006799532566219568
1685471915936870000,3.378869873046875,9.783158302307129,-0.0322355292737484,0.008456320501863956
1685471915956870000,3.398869873046875,9.798452377319336,-0.01649126037955284,0.010323798283934593
1685471915976870000,3.418869873046875,9.801066398620605,-0.035798102617263794,-0.0019057845929637551
1685471915996870000,3.438869873046875,9.79725456237793,-0.02876872755587101,0.004309562966227531
1685471916016870000,3.458869873046875,9.788904190063477,-0.024918852373957634,0.0038211459759622812
1685471916036870000,3.478869873046875,9.795732498168945,-0.03568318113684654,-0.0008810661965981126
1685471916056870000,3.498869873046875,9.779940605163574,-0.02507208101451397,-0.017544711008667946
1685471916076870000,3.518869873046875,9.780045509338379,-0.025866955518722534,-0.004817133769392967
1685471916096870000,3.538869873046875,9.798154830932617,-0.046648625284433365,0.006445190869271755
1685471916116870000,3.558869873046875,9.796076774597168,-0.03897760435938835,0.009576806798577309
1685471916136870000,3.578869873046875,9.797916412353516,-0.03537672385573387,-0.008714893832802773
1685471916156870000,3.598869873046875,9.8012113571167,-0.030588321387767792,-0.0026815058663487434
1685471916176870000,3.618869873046875,9.792218208312988,-0.03331771120429039,0.010122684761881828
1685471916196870000,3.638869873046875,9.798442840576172,-0.034533966332674026,0.0076231383718550205
1685471916216870000,3.658869873046875,9.793731689453125,-0.019986795261502266,0.0056503163650631905
1685471916236870000,3.678869873046875,9.793299674987793,-0.028874073177576065,0.00016280572162941098
1685471916256870000,3.698869873046875,9.795598983764648,-0.041908107697963715,-0.006512228399515152
1685471916276870000,3.718869873046875,9.795330047607422,-0.03350924700498581,0.0008619126165285707
1685471916296870000,3.738869873046875,9.790714263916016,-0.04322970658540726,0.01267969235777855
1685471916316870000,3.758869873046875,9.785983085632324,-0.038355108350515366,-0.005707777105271816
1685471916336870000,3.778869873046875,9.803413391113281,-0.030990546569228172,0.0015897499397397041
1685471916356870000,3.798869873046875,9.790197372436523,-0.04043327644467354,-0.005707777105271816
1685471916376870000,3.818869873046875,9.80505084991455,-0.03305913507938385,0.01358948927372694
1685471916396870000,3.838869873046875,9.79366397857666,-0.03254198655486107,0.01039083581417799
1685471916416870000,3.858869873046875,9.791422843933105,-0.041668687015771866,-0.014815320260822773
1685471916436870000,3.878869873046875,9.797188758850098,-0.03505111485719681,0.0015322890831157565
1685471916456870000,3.898869873046875,9.791088104248047,-0.03945644199848175,-0.004338293336331844
1685471916476870000,3.918869873046875,9.788836479187012,-0.039322368800640106,0.009222464635968208
1685471916496870000,3.938869873046875,9.79018783569336,-0.044350191950798035,0.0055353944189846516
1685471916516870000,3.958869873046875,9.813593864440918,-0.02552218921482563,0.014164096675813198
1685471916536870000,3.978869873046875,9.793998718261719,-0.025081656873226166,0.002882618922740221
1685471916556870000,3.998869873046875,9.796220779418945,-0.033068712800741196,-0.0012928689830005169
1685471916576870000,4.018869873046875,9.800703048706055,-0.032312143594026566,-0.0035242647863924503
1685471916596870000,4.038869873046875,9.797455787658691,-0.04096957668662071,0.0039264908991754055
1685471916616870000,4.058869873046875,9.794975280761719,-0.02900814823806286,0.006129156332463026
1685471916636870000,4.078869873046875,9.80086612701416,-0.030578745529055595,0.007144297938793898
1685471916656870000,4.098869873046875,9.788836479187012,-0.04373727738857269,0.011903970502316952
1685471916676870000,4.118869873046875,9.819339752197266,-0.02542642131447792,0.015112200751900673
1685471916696870000,4.138869873046875,9.787008285522461,-0.029554026201367378,-0.0020302829798310995
1685471916716870000,4.158869873046875,9.79196834564209,-0.03931279480457306,-0.006119579542428255
1685471916736870000,4.178869873046875,9.808441162109375,-0.03783796355128288,0.0017908628797158599
1685471916756870000,4.198869873046875,9.795618057250977,-0.025349806994199753,-0.012210427783429623
1685471916776870000,4.218869873046875,9.794142723083496,-0.043354205787181854,-0.012210427783429623
1685471916796871400,4.238871337890625,9.77730655670166,-0.023233333602547646,0.008801085874438286
1685471916816870000,4.258869873046875,9.79780101776123,-0.040011897683143616,0.003217807039618492
1685471916836870000,4.278869873046875,9.798567771911621,-0.0402800478041172,0.009749189019203186
1685471916856870000,4.298869873046875,9.802072525024414,-0.03649721294641495,0.006856993772089481
1685471916876870000,4.318869873046875,9.79638385772705,-0.046313438564538956,-0.00461602071300149
1685471916896870000,4.338869873046875,9.792016983032227,-0.035798102617263794,0.003217807039618492
1685471916916870000,4.358869873046875,9.796212196350098,-0.035606566816568375,0.019862297922372818
1685471916936870000,4.378869873046875,9.7984619140625,-0.03322194144129753,0.002576161175966263
1685471916956870000,4.398869873046875,9.793865203857422,-0.02269703336060047,-0.006339846178889275
1685471916976870000,4.418869873046875,9.807636260986328,-0.039274487644433975,-0.005219359882175922
1685471916996870000,4.438869873046875,9.808537483215332,-0.037617698311805725,-0.007757213432341814
1685471917016870000,4.458869873046875,9.784269332885742,-0.03926490619778633,-0.004462792072445154
1685471917036870000,4.478869873046875,9.792390823364258,-0.0389871783554554,0.0010534487664699554
1685471917056870000,4.498869873046875,9.787391662597656,-0.031335312873125076,-0.006991068832576275
1685471917076870000,4.518869873046875,9.78771686553955,-0.033710360527038574,-0.008475474081933498
1685471917096870000,4.538869873046875,9.793137550354004,-0.04219541326165199,0.0019919758196920156
1685471917116870000,4.558869873046875,9.803126335144043,-0.02822284959256649,0.004108449909836054
1685471917136870000,4.578869873046875,9.793204307556152,-0.014757859520614147,-0.012899958528578281
1685471917156870000,4.598869873046875,9.807206153869629,-0.037761349231004715,-0.0005841852398589253
1685471917176870000,4.618869873046875,9.80592155456543,-0.03635355830192566,0.0010726023465394974
1685471917196870000,4.638869873046875,9.783703804016113,-0.03818272799253464,0.002576161175966263
1685471917216870000,4.658869873046875,9.772250175476074,-0.04365108534693718,-0.0018866308964788914
1685471917236870000,4.678869873046875,9.783186912536621,-0.04853525385260582,0.00452025281265378
1685471917256870000,4.698869873046875,9.79273509979248,-0.036669593304395676,-0.009174580685794353
1685471917276870000,4.718869873046875,9.798940658569336,-0.04914817586541176,0.0055641247890889645
1685471917296870000,4.738869873046875,9.796451568603516,-0.041955988854169846,0.005046977195888758
1685471917316870000,4.758869873046875,9.809839248657227,-0.037263356149196625,0.011511322110891342
1685471917336870000,4.778869873046875,9.784269332885742,-0.03798161819577217,0.006579265929758549
1685471917356870000,4.798869873046875,9.796575546264648,-0.030846895650029182,0.00619619432836771
1685471917376870000,4.818869873046875,9.788617134094238,-0.030741550028324127,0.006770802661776543
1685471917396870000,4.838869873046875,9.805960655212402,-0.048382025212049484,0.004932055249810219
1685471917416870000,4.858869873046875,9.793022155761719,-0.03354755416512489,-0.002911349292844534
1685471917436870000,4.878869873046875,9.804245948791504,-0.04008851200342178,0.014355633407831192
1685471917456870000,4.898869873046875,9.7935209274292,-0.02563711255788803,0.0018387469463050365
1685471917476870000,4.918869873046875,9.80125904083252,-0.03146938607096672,0.0017334020230919123
1685471917496870000,4.938869873046875,9.794190406799316,-0.045010991394519806,-0.005248090252280235
1685471917516870000,4.958869873046875,9.796919822692871,-0.04080677404999733,-0.004127603489905596
1685471917536870000,4.978869873046875,9.790398597717285,-0.04122815281152725,0.00028730419580824673
1685471917556870000,4.998869873046875,9.79259204864502,-0.04737646505236626,0.0029975404031574726
1685471917576870000,5.018869873046875,9.797245979309082,-0.036171600222587585,-0.004903324879705906
1685471917596870000,5.038869873046875,9.787879943847656,-0.03073197416961193,0.001130063203163445
1685471917616870000,5.058869873046875,9.791825294494629,-0.030406363308429718,-0.006167463958263397
1685471917636870000,5.078869873046875,9.78695011138916,-0.03788584843277931,-0.010773907415568829
1685471917656870000,5.098869873046875,9.801861763000488,-0.03667916730046272,0.004797980189323425
1685471917676870000,5.118869873046875,9.7974853515625,-0.047692496329545975,0.00033518823329359293
1685471917696870000,5.138869873046875,9.802618026733398,-0.039561789482831955,0.003964798059314489
1685471917716870000,5.158869873046875,9.808192253112793,-0.04487691447138786,-0.00649307481944561
1685471917736870000,5.178869873046875,9.79273509979248,-0.0303297471255064,0.002240972826257348
1685471917756870000,5.198869873046875,9.781645774841309,-0.03974374756217003,-0.006655880715698004
1685471917776871400,5.218871337890625,9.792255401611328,-0.048257529735565186,-0.00018195933080278337
1685471917796870000,5.238869873046875,9.784307479858398,-0.03310701996088028,0.013043610379099846
1685471917816870000,5.258869873046875,9.790963172912598,-0.04408204182982445,-0.0014844050165265799
1685471917836870000,5.278869873046875,9.78913402557373,-0.035223495215177536,0.003677493892610073
1685471917856870000,5.298869873046875,9.800741195678711,-0.0389871783554554,-0.012133813463151455
1685471917876870000,5.318869873046875,9.794353485107422,-0.029678523540496826,0.001139639993198216
1685471917896870000,5.338869873046875,9.809035301208496,-0.033116597682237625,0.004529829602688551
1685471917916870000,5.358869873046875,9.802742958068848,-0.03589387238025665,0.0107834842056036
1685471917936870000,5.378869873046875,9.784690856933594,-0.028232425451278687,0.009203311055898666
1685471917956870000,5.398869873046875,9.785417556762695,-0.044656649231910706,0.00022026654914952815
1685471917976870000,5.418869873046875,9.799468040466309,-0.04234864190220833,0.00629196222871542
1685471917996870000,5.438869873046875,9.793156623840332,-0.03656424582004547,0.0017525556031614542
1685471918016870000,5.458869873046875,9.797428131103516,-0.04209006577730179,-0.01003649365156889
1685471918036870000,5.478869873046875,9.790043830871582,-0.019354727119207382,0.006406883709132671
1685471918056870000,5.498869873046875,9.798442840576172,-0.03868072107434273,-0.00039264908991754055
1685471918076870000,5.518869873046875,9.789575576782227,-0.03417004644870758,-0.004855440929532051
1685471918096870000,5.538869873046875,9.79552173614502,-0.0527203232049942,0.001110909623093903
1685471918116870000,5.558869873046875,9.797591209411621,-0.029582755640149117,0.007412448525428772
1685471918136870000,5.578869873046875,9.800127983093262,-0.045700524002313614,-0.010706869885325432
1685471918156870000,5.598869873046875,9.803624153137207,-0.02807919681072235,0.0058993129059672356
1685471918176870000,5.618869873046875,9.795167922973633,-0.015150507912039757,0.003706224262714386
1685471918196870000,5.638869873046875,9.803077697753906,-0.04647624120116234,-0.0010247182799503207
1685471918216871400,5.658871337890625,9.79806900024414,-0.04614105448126793,0.003246537409722805
1685471918236871400,5.678871337890625,9.805596351623535,-0.03371993452310562,0.00012449848873075098
1685471918256870000,5.698869873046875,9.778742790222168,-0.038000769913196564,0.00016280572162941098
1685471918276870000,5.718869873046875,9.780227661132812,-0.040251318365335464,0.009892841801047325
1685471918296870000,5.738869873046875,9.783522605895996,-0.03270479664206505,0.005774814635515213
1685471918316870000,5.758869873046875,9.799840927124023,-0.037263356149196625,-0.006387730129063129
1685471918336870000,5.778869873046875,9.784317016601562,-0.027102364227175713,-0.007144297938793898
1685471918356870000,5.798869873046875,9.795513153076172,-0.034543540328741074,-0.007996633648872375
1685471918376870000,5.818869873046875,9.79531192779541,-0.028538884595036507,0.00674207229167223
1685471918396870000,5.838869873046875,9.805808067321777,-0.044943954795598984,-0.0035242647863924503
1685471918416870000,5.858869873046875,9.798079490661621,-0.033873166888952255,0.0020207061897963285
1685471918436870000,5.878869873046875,9.799840927124023,-0.028634652495384216,0.001781286089681089
1685471918456870000,5.898869873046875,9.806572914123535,-0.038259342312812805,-0.0020494365599006414
1685471918476870000,5.918869873046875,9.779241561889648,-0.02557007409632206,-0.0026527754962444305
1685471918496871400,5.938871337890625,9.7774019241333,-0.043679818511009216,-0.005889736115932465
1685471918516870000,5.958869873046875,9.804716110229492,-0.03230256959795952,-0.005592855159193277
1685471918536870000,5.978869873046875,9.796469688415527,-0.04021301120519638,0.004338293336331844
1685471918556870000,5.998869873046875,9.803451538085938,-0.03703351318836212,0.015255853533744812
1685471918576870000,6.018869873046875,9.806046485900879,-0.03222595527768135,-0.013675680384039879
1685471918596870000,6.038869873046875,9.785754203796387,-0.033518824726343155,-0.008561665192246437
1685471918616870000,6.058869873046875,9.786355972290039,-0.04697423428297043,-0.01228704396635294
1685471918636871400,6.078871337890625,9.80522346496582,-0.03652593865990639,-0.003687070682644844
1685471918656870000,6.098869873046875,9.791853904724121,-0.03380613029003143,0.015581464394927025
1685471918676870000,6.118869873046875,9.78281307220459,-0.04199429601430893,-0.0018483237363398075
1685471918696870000,6.138869873046875,9.791767120361328,-0.03419877588748932,0.006234501488506794
1685471918716870000,6.158869873046875,9.780083656311035,-0.04423527047038078,0.00739329494535923
1685471918736870000,6.178869873046875,9.787784576416016,-0.03603752702474594,-0.008054094389081001
1685471918756871400,6.198871337890625,9.807943344116211,-0.04812345653772354,-0.0018674773164093494
1685471918776870000,6.218869873046875,9.791624069213867,-0.02611595205962658,0.001120486413128674
1685471918796871400,6.238871337890625,9.790091514587402,-0.05787264183163643,0.00026815058663487434
1685471918816870000,6.258869873046875,9.795684814453125,-0.048784252256155014,0.001417367486283183
1685471918836870000,6.278869873046875,9.790465354919434,-0.042549751698970795,0.004098873119801283
1685471918856870000,6.298869873046875,9.801105499267578,-0.037617698311805725,0.014164096675813198
1685471918876870000,6.318869873046875,9.787544250488281,-0.02928587608039379,0.013512874953448772
1685471918896870000,6.338869873046875,9.794832229614258,-0.04679227992892265,0.02478477731347084
1685471918916870000,6.358869873046875,9.787458419799805,-0.02438254840672016,0.006416460499167442
1685471918936871400,6.378871337890625,9.798768997192383,-0.037244200706481934,-0.0002585737674962729
1685471918956870000,6.398869873046875,9.794296264648438,-0.041007883846759796,-0.00007661445124540478
1685471918976870000,6.418869873046875,9.781329154968262,-0.044656649231910706,-0.01169328112155199
1685471918996870000,6.438869873046875,9.799735069274902,-0.04009808972477913,-0.004012682009488344
1685471919016870000,6.458869873046875,9.77153205871582,-0.030454246327280998,-0.0012162544298917055
1685471919036870000,6.478869873046875,9.790858268737793,-0.02139458619058132,0.0031699230894446373
1685471919056870000,6.498869873046875,9.79623031616211,-0.0407588891685009,0.0055545479990541935
1685471919076870000,6.518869873046875,9.787171363830566,-0.05352477356791496,-0.007402871735394001
1685471919096870000,6.538869873046875,9.798796653747559,-0.03598963841795921,0.008973468095064163
1685471919116870000,6.558869873046875,9.788138389587402,-0.03383485972881317,0.007498639635741711
1685471919136870000,6.578869873046875,9.799898147583008,-0.035510800778865814,0.0026431987062096596
1685471919156870000,6.598869873046875,9.796307563781738,-0.04038539528846741,0.0013982137897983193
1685471919176870000,6.618869873046875,9.796431541442871,-0.03236960619688034,-0.013972560875117779
1685471919196870000,6.638869873046875,9.816266059875488,-0.026154259219765663,0.0042999861761927605
1685471919216870000,6.658869873046875,9.79051399230957,-0.05407065153121948,0.004558559972792864
1685471919236870000,6.678869873046875,9.755597114562988,-0.03153642639517784,0.007584830746054649
1685471919256870000,6.698869873046875,9.791777610778809,-0.027954699471592903,0.002221819246187806
1685471919276870000,6.718869873046875,9.785207748413086,-0.02976471558213234,0.0016950948629528284
1685471919296870000,6.738869873046875,9.807445526123047,-0.036985624581575394,-0.010228029452264309
1685471919316870000,6.758869873046875,9.798442840576172,-0.029554026201367378,0.0019728222396224737
1685471919336870000,6.778869873046875,9.783914566040039,-0.027791893109679222,0.008465897291898727
1685471919356870000,6.798869873046875,9.785017013549805,-0.030128633603453636,-0.008513781242072582
1685471919376870000,6.818869873046875,9.787439346313477,-0.03439031168818474,-0.000967257481534034
1685471919396870000,6.838869873046875,9.786011695861816,-0.03642059862613678,0.013704410754144192
1685471919416870000,6.858869873046875,9.797015190124512,-0.03213976323604584,0.005305550992488861
1685471919436870000,6.878869873046875,9.799246788024902,-0.03498407453298569,0.0035434183664619923
1685471919456870000,6.898869873046875,9.803624153137207,-0.03263775631785393,0.011080365628004074
1685471919476870000,6.918869873046875,9.80887222290039,-0.045202530920505524,-0.0033327287528663874
1685471919496870000,6.938869873046875,9.794486999511719,-0.026997018605470657,0.0012354080099612474
1685471919516870000,6.958869873046875,9.800271987915039,-0.032101456075906754,-0.00442448491230607
1685471919536870000,6.978869873046875,9.789200782775879,-0.041601650416851044,-0.003208230249583721
1685471919556870000,6.998869873046875,9.792524337768555,-0.030597899109125137,0.011750741861760616
1685471919576870000,7.018869873046875,9.786873817443848,-0.038000769913196564,0.004271255806088448
1685471919596870000,7.038869873046875,9.796441078186035,-0.04163995757699013,0.005075707565993071
1685471919616870000,7.058869873046875,9.809647560119629,-0.02637452445924282,0.0043861777521669865
1685471919636870000,7.078869873046875,9.78625202178955,-0.027351360768079758,0.0023654713295400143
1685471919656870000,7.098869873046875,9.798145294189453,-0.03888183459639549,-0.007412448525428772
1685471919676870000,7.118869873046875,9.795110702514648,-0.03071282058954239,-0.006129156332463026
1685471919696870000,7.138869873046875,9.782986640930176,-0.04452257603406906,0.004098873119801283
1685471919716870000,7.158869873046875,9.805998802185059,-0.035127729177474976,-0.0027102362364530563
1685471919736870000,7.178869873046875,9.785064697265625,-0.018942924216389656,0.01563892513513565
1685471919756870000,7.198869873046875,9.795282363891602,-0.036200329661369324,0.0016663643764331937
1685471919776870000,7.218869873046875,9.796670913696289,-0.030435092747211456,-0.007508216425776482
1685471919796870000,7.238869873046875,9.799257278442383,-0.03378697484731674,-0.006789956241846085
1685471919816870000,7.258869873046875,9.783138275146484,-0.03313574939966202,0.0034380736760795116
1685471919836870000,7.278869873046875,9.790292739868164,-0.033308133482933044,-0.006560112349689007
1685471919856870000,7.298869873046875,9.791950225830078,-0.03931279480457306,0.007910442538559437
1685471919876870000,7.318869873046875,9.799304962158203,-0.03538630157709122,-0.0025378537829965353
1685471919896870000,7.338869873046875,9.805769920349121,-0.03787627071142197,0.013876792974770069
1685471919916870000,7.358869873046875,9.800951957702637,-0.041553765535354614,0.007565677165985107
1685471919936870000,7.378869873046875,9.785955429077148,-0.042999863624572754,-0.00484586413949728
1685471919956870000,7.398869873046875,9.789631843566895,-0.03026270866394043,0.014719552360475063
1685471919976870000,7.418869873046875,9.777507781982422,-0.04241567477583885,-0.006876147352159023
1685471919996870000,7.438869873046875,9.796709060668945,-0.03399766609072685,0.005516240373253822
1685471920016870000,7.458869873046875,9.804389953613281,-0.03460100293159485,-0.006981492042541504
1685471920036870000,7.478869873046875,9.791441917419434,-0.02907518669962883,0.0011683704797178507
1685471920056870000,7.498869873046875,9.779892921447754,-0.021222203969955444,-0.0075465235859155655
1685471920076870000,7.518869873046875,9.781118392944336,-0.034706346690654755,-0.008762778714299202
1685471920096871400,7.538871337890625,9.789143562316895,-0.04464707151055336,0.0068282634019851685
1685471920116870000,7.558869873046875,9.798356056213379,-0.030578745529055595,-0.0035913025494664907
1685471920136870000,7.578869873046875,9.78669261932373,-0.0364876314997673,-0.004414908122271299
1685471920156870000,7.598869873046875,9.793060302734375,-0.038853105157613754,-0.0015418659895658493
1685471920176870000,7.618869873046875,9.77414608001709,-0.039044640958309174,0.0052002063021063805
1685471920196870000,7.638869873046875,9.784652709960938,-0.02222776785492897,0.01819593273103237
1685471920216870000,7.658869873046875,9.802091598510742,-0.034533966332674026,0.00016280572162941098
1685471920236870000,7.678869873046875,9.787314414978027,-0.03328897804021835,0.0009002198348753154
1685471920256870000,7.698869873046875,9.779165267944336,-0.01796608977019787,-0.0027102362364530563
1685471920276870000,7.718869873046875,9.79738998413086,-0.03333686292171478,0.008734048344194889
1685471920296870000,7.738869873046875,9.78428840637207,-0.040442854166030884,0.006177040748298168
1685471920316870000,7.758869873046875,9.783771514892578,-0.02798342891037464,-0.0009959879098460078
1685471920336870000,7.778869873046875,9.800406455993652,-0.03417004644870758,-0.01189439371228218
1685471920356870000,7.798869873046875,9.783963203430176,-0.03473507612943649,-0.0008523358264937997
1685471920376870000,7.818869873046875,9.781376838684082,-0.04189852997660637,-0.00004788403384736739
1685471920396870000,7.838869873046875,9.789412498474121,-0.02203623205423355,-0.0035242647863924503
1685471920416870000,7.858869873046875,9.779519081115723,-0.032216377556324005,-0.00029688101494684815
1685471920436870000,7.878869873046875,9.795215606689453,-0.03474465385079384,-0.009500192478299141
1685471920456870000,7.898869873046875,9.775065422058105,-0.03346136584877968,0.001944091753102839
1685471920476870000,7.918869873046875,9.787755012512207,-0.046006981283426285,0.016740258783102036
1685471920496870000,7.938869873046875,9.793731689453125,-0.033116597682237625,0.003888183506205678
1685471920516870000,7.958869873046875,9.786127090454102,-0.05017289146780968,-0.004663905128836632
1685471920536870000,7.978869873046875,9.801593780517578,-0.04193683713674545,0.007651868741959333
1685471920556870000,7.998869873046875,9.795598983764648,-0.04495352879166603,0.012143390253186226
1685471920576870000,8.018869873046874,9.79268741607666,-0.029467834159731865,0.0019823990296572447
1685471920596870000,8.038869873046876,9.790617942810059,-0.025321077555418015,0.0056503163650631905
1685471920616870000,8.058869873046875,9.781558990478516,-0.038067806512117386,0.005008670035749674
1685471920636870000,8.078869873046875,9.786491394042969,-0.02841438539326191,-0.006033387966454029
1685471920656870000,8.098869873046874,9.782161712646484,-0.03489788621664047,0.0025378537829965353
1685471920676870000,8.118869873046876,9.788492202758789,-0.03712927922606468,0.011415554210543633
1685471920696870000,8.138869873046875,9.782362937927246,-0.03635355830192566,0.013120224699378014
1685471920716870000,8.158869873046875,9.788818359375,-0.041841067373752594,0.00684741698205471
1685471920736870000,8.178869873046875,9.804619789123535,-0.034936193376779556,0.008006210438907146
1685471920756870000,8.198869873046876,9.804993629455566,-0.033921051770448685,-0.0017908628797158599
1685471920776870000,8.218869873046875,9.800999641418457,-0.03263775631785393,-0.010208875872194767
1685471920796870000,8.238869873046875,9.78353214263916,-0.026001030579209328,0.008829816244542599
1685471920816870000,8.258869873046875,9.780879020690918,-0.0468018539249897,-0.004156333860009909
1685471920836870000,8.278869873046874,9.788607597351074,-0.034725502133369446,0.014317326247692108
1685471920856870000,8.298869873046876,9.792716026306152,-0.031009700149297714,0.008542511612176895
1685471920876870000,8.318869873046875,9.787696838378906,-0.037359122186899185,-0.013196839019656181
1685471920896870000,8.338869873046875,9.79410457611084,-0.0335283987224102,0.0009002198348753154
1685471920916870000,8.358869873046874,9.790552139282227,-0.029276298359036446,0.006148310378193855
1685471920936870000,8.378869873046876,9.786758422851562,-0.03360501304268837,0.0056503163650631905
1685471920956870000,8.398869873046875,9.781510353088379,-0.027887661010026932,-0.005774814635515213
1685471920976870000,8.418869873046875,9.788119316101074,-0.030032865703105927,-0.005008670035749674
1685471920996870000,8.438869873046874,9.77540111541748,-0.029735984280705452,0.01433647982776165
1685471921016870000,8.458869873046876,9.783905029296875,-0.038115691393613815,-0.0075561003759503365
1685471921036870000,8.478869873046875,9.789238929748535,-0.01962287724018097,-0.010936712846159935
1685471921056870000,8.498869873046875,9.783866882324219,-0.033260248601436615,-0.011214440688490868
1685471921076870000,8.518869873046874,9.809284210205078,-0.03455311805009842,-0.001426944276317954
1685471921096870000,8.538869873046876,9.785351753234863,-0.038508340716362,-0.0006320692482404411
1685471921116870000,8.558869873046875,9.77987289428711,-0.032666489481925964,-0.00839885976165533
1685471921136870000,8.578869873046875,9.779241561889648,-0.03460100293159485,-0.00005746084207203239
1685471921156870000,8.598869873046874,9.788406372070312,-0.04582501947879791,0.009107543155550957
1685471921176870000,8.618869873046876,9.799457550048828,-0.04279874637722969,0.02585737779736519
1685471921196870000,8.638869873046875,9.775104522705078,-0.04433104023337364,0.015227123163640499
1685471921216870000,8.658869873046875,9.792343139648438,-0.036966472864151,-0.009356540627777576
1685471921236870000,8.678869873046875,9.787649154663086,-0.0246411245316267,0.008647856302559376
1685471921256870000,8.698869873046876,9.792533874511719,-0.030799010768532753,0.00823605339974165
1685471921276870000,8.718869873046875,9.793769836425781,-0.02376963384449482,0.005707777105271816
1685471921296870000,8.738869873046875,9.791097640991211,-0.039063792675733566,-0.0042904093861579895
1685471921316870000,8.758869873046875,9.78090763092041,-0.02791639044880867,-0.013867216184735298
1685471921336870000,8.778869873046874,9.792657852172852,-0.03817315399646759,-0.0020494365599006414
1685471921356870000,8.798869873046876,9.806238174438477,-0.03218764811754227,0.005612008739262819
1685471921376870000,8.818869873046875,9.794554710388184,-0.038355108350515366,-0.00913627352565527
1685471921396870000,8.838869873046875,9.789229393005371,-0.03433285281062126,0.007699752692133188
1685471921416870000,8.858869873046874,9.782516479492188,-0.036104559898376465,0.009988609701395035
1685471921436870000,8.878869873046876,9.804342269897461,-0.03935110196471214,-0.003562572179362178
1685471921456870000,8.898869873046875,9.790369033813477,-0.03384443745017052,-0.0012545617064461112
1685471921476870000,8.918869873046875,9.79725456237793,-0.023942016065120697,-0.0017621323931962252
1685471921496870000,8.938869873046874,9.790493965148926,-0.03808695822954178,-0.004759673029184341
1685471921516870000,8.958869873046876,9.797274589538574,-0.04377558454871178,0.00003830722562270239
1685471921536870000,8.978869873046875,9.790005683898926,-0.03736870363354683,-0.009509769268333912
1685471921556870000,8.998869873046875,9.798710823059082,-0.02206496149301529,0.017209522426128387
1685471921576870000,9.018869873046874,9.783273696899414,-0.029841329902410507,0.007709329482167959
1685471921596870000,9.038869873046876,9.796402931213379,-0.03275267779827118,0.0056407395750284195
1685471921616870000,9.058869873046875,9.800990104675293,-0.0392170213162899,-0.0020302829798310995
1685471921636870000,9.078869873046875,9.7860689163208,-0.0336529016494751,-0.0026431987062096596
1685471921656870000,9.098869873046874,9.782889366149902,-0.03447650372982025,0.00226012640632689
1685471921676870000,9.118869873046876,9.793835639953613,-0.03666001558303833,0.002240972826257348
1685471921696870000,9.138869873046875,9.787496566772461,-0.026748022064566612,0.007661445531994104
1685471921716870000,9.158869873046875,9.776569366455078,-0.025646688416600227,0.0015801731497049332
1685471921736870000,9.178869873046875,9.803604125976562,-0.03368162736296654,0.005142745096236467
1685471921756870000,9.198869873046876,9.781156539916992,-0.029295451939105988,0.014805743470788002
1685471921776870000,9.218869873046875,9.793749809265137,-0.030980970710515976,0.006177040748298168
1685471921796870000,9.238869873046875,9.79361629486084,-0.021270088851451874,0.01774582266807556
1685471921816870000,9.258869873046875,9.795531272888184,-0.028069620952010155,-0.000641646038275212
1685471921836870000,9.278869873046874,9.797552108764648,-0.020810401067137718,0.002288856776431203
1685471921856870000,9.298869873046876,9.791394233703613,-0.05954858288168907,-0.004922478459775448
1685471921876870000,9.318869873046875,9.767834663391113,-0.05670427158474922,0.008130708709359169
1685471921896870000,9.338869873046875,9.78886604309082,-0.038134846836328506,0.0006895300466567278
1685471921916870000,9.358869873046874,9.78815746307373,-0.03139277175068855,-0.001953668659552932
1685471921936870000,9.378869873046876,9.770344734191895,-0.03293463960289955,-0.00364876352250576
1685471921956870000,9.398869873046875,9.812607765197754,-0.03683239594101906,0.008350975811481476
1685471921976870000,9.418869873046875,9.786567687988281,-0.039398983120918274,0.0010342950699850917
1685471921996870000,9.438869873046874,9.792055130004883,-0.03530968725681305,0.007230489049106836
1685471922016870000,9.458869873046876,9.77784252166748,-0.03313574939966202,-0.0007086837431415915
1685471922036870000,9.478869873046875,9.788042068481445,-0.047242388129234314,-0.003859453136101365
1685471922056870000,9.498869873046875,9.779059410095215,-0.025292346253991127,-0.007259219419211149
1685471922076870000,9.518869873046874,9.795110702514648,-0.04636131972074509,0.013742717914283276
1685471922096870000,9.538869873046876,9.785112380981445,-0.028663383796811104,-0.0006129156099632382
1685471922116870000,9.558869873046875,9.805692672729492,-0.03399766609072685,0.006110002286732197
1685471922136870000,9.578869873046875,9.801229476928711,-0.03728250786662102,0.005219359882175922
1685471922156870000,9.598869873046874,9.783004760742188,-0.0465720109641552,0.009337387047708035
1685471922176870000,9.618869873046876,9.797513961791992,-0.03205357491970062,-0.0009864111198112369
1685471922196870000,9.638869873046875,9.78134822845459,-0.03415089473128319,0.015026009641587734
1685471922216870000,9.658869873046875,9.791394233703613,-0.027265168726444244,0.0021452046930789948
1685471922236870000,9.678869873046875,9.786491394042969,-0.021624429151415825,-0.004778826609253883
1685471922256870000,9.698869873046876,9.775409698486328,-0.030147787183523178,-0.007661445531994104
1685471922276870000,9.718869873046875,9.797351837158203,-0.044541727751493454,0.004185064695775509
1685471922296870000,9.738869873046875,9.786778450012207,-0.02208411507308483,0.00833182130008936
1685471922316870000,9.758869873046875,9.769349098205566,-0.0347159244120121,-0.00793917290866375
1685471922336870000,9.778869873046874,9.786222457885742,-0.029352912679314613,-0.0018770541064441204
1685471922356870000,9.798869873046876,9.799840927124023,-0.03983951732516289,0.014738705940544605
1685471922376870000,9.818869873046875,9.774357795715332,-0.03256114199757576,-0.007335834205150604
1685471922396870000,9.838869873046875,9.771140098571777,-0.04373727738857269,-0.006090848706662655
1685471922416870000,9.858869873046874,9.783771514892578,-0.04229117929935455,0.002212242456153035
1685471922436870000,9.878869873046876,9.78837776184082,-0.035769373178482056,0.014805743470788002
1685471922456870000,9.898869873046875,9.802502632141113,-0.03389231860637665,0.00038307227077893913
1685471922476870000,9.918869873046875,9.803834915161133,-0.04135265201330185,-0.008676586672663689
1685471922496870000,9.938869873046874,9.798873901367188,-0.047663770616054535,0.003888183506205678
1685471922516870000,9.958869873046876,9.789325714111328,-0.026297910138964653,-0.0004501099174376577
1685471922536870000,9.978869873046875,9.784106254577637,-0.03225468471646309,-0.02196919359266758
1685471922556870000,9.998869873046875,9.79197883605957,-0.03514688089489937,0.002221819246187806
1685471922576870000,10.018869873046874,9.796239852905273,-0.034179624170064926,0.0130914943292737
1685471922596870000,10.038869873046876,9.797216415405273,-0.039657559245824814,-0.0036104561295360327
1685471922616870000,10.058869873046875,9.798097610473633,-0.0321110337972641,0.0012162544298917055
1685471922636870000,10.078869873046875,9.793482780456543,-0.03350924700498581,-0.0035913025494664907
1685471922656870000,10.098869873046874,9.784680366516113,-0.03488830476999283,0.0038019923958927393
1685471922676870000,10.118869873046876,9.79530143737793,-0.027188554406166077,-0.0018100164597854018
1685471922696870000,10.138869873046875,9.805232048034668,-0.04729027301073074,-0.000009576806405675597
1685471922716870000,10.158869873046875,9.794018745422363,-0.04343082010746002,0.011204863898456097
1685471922736870000,10.178869873046875,9.788330078125,-0.03918829187750816,0.004510676022619009
1685471922756870000,10.198869873046876,9.78809928894043,-0.03976290300488472,-0.0013886369997635484
1685471922776870000,10.218869873046875,9.785810470581055,-0.03260902687907219,-0.006205771118402481
1685471922796870000,10.238869873046875,9.80538558959961,-0.025799917057156563,-0.0034380736760795116
1685471922816870000,10.258869873046875,9.778484344482422,-0.02727474644780159,-0.009969456121325493
1685471922836870000,10.278869873046874,9.784173965454102,-0.02279280126094818,0.006406883709132671
1685471922856870000,10.298869873046876,9.804245948791504,-0.038900990039110184,0.0037924153730273247
1685471922876870000,10.318869873046875,9.79802131652832,-0.024775199592113495,0.00009576806769473478
1685471922896870000,10.338869873046875,9.799084663391113,-0.031507693231105804,0.0021643582731485367
1685471922916870000,10.358869873046874,9.790465354919434,-0.0386328399181366,-0.007900865748524666
1685471922936870000,10.378869873046876,9.787726402282715,-0.0408833883702755,-0.0004788403457496315
1685471922956870000,10.398869873046875,9.784259796142578,-0.03976290300488472,0.0018674773164093494
1685471922976870000,10.418869873046875,9.780658721923828,-0.03324109688401222,0.010151415131986141
1685471922996870000,10.438869873046874,9.80397891998291,-0.04647624120116234,0.001924938173033297
1685471923016870000,10.458869873046876,9.790532112121582,-0.035434186458587646,0.006895300932228565
1685471923036870000,10.478869873046875,9.787985801696777,-0.04148672893643379,0.004817133769392967
1685471923056870000,10.498869873046875,9.804879188537598,-0.03528095781803131,0.0006224924582056701
1685471923076870000,10.518869873046874,9.803106307983398,-0.034352004528045654,0.00823605339974165
1685471923096870000,10.538869873046876,9.802436828613281,-0.0344860814511776,-0.010170568712055683
1685471923116870000,10.558869873046875,9.80920696258545,-0.02912306971848011,0.013522451743483543
1685471923136870000,10.578869873046875,9.790350914001465,-0.029324183240532875,0.004663905128836632
1685471923156870000,10.598869873046874,9.791796684265137,-0.047031696885824203,-0.006177040748298168
1685471923176870000,10.618869873046876,9.770468711853027,-0.03583640977740288,0.0020111293997615576
1685471923196870000,10.638869873046875,9.800061225891113,-0.028701690956950188,0.0003447650233283639
1685471923216870000,10.658869873046875,9.781874656677246,-0.055459290742874146,0.002126051113009453
1685471923236870000,10.678869873046875,9.796010971069336,-0.04038539528846741,0.00442448491230607
1685471923256870000,10.698869873046876,9.782468795776367,-0.033633746206760406,0.010151415131986141
1685471923276870000,10.718869873046875,9.798337936401367,-0.04248271510004997,0.005046977195888758
1685471923296870000,10.738869873046875,9.788971900939941,-0.03369120880961418,0.011836932972073555
1685471923316870000,10.758869873046875,9.805098533630371,-0.03349967300891876,-0.004347870126366615
1685471923336870000,10.778869873046874,9.790350914001465,-0.038163572549819946,0.008360552601516247
1685471923356870000,10.798869873046876,9.794622421264648,-0.02481350675225258,-0.001436521066352725
1685471923376870000,10.818869873046875,9.785120964050293,-0.035769373178482056,-0.0034476504661142826
1685471923396870000,10.838869873046875,9.777048110961914,-0.03473507612943649,-0.0007661445415578783
1685471923416870000,10.858869873046874,9.780074119567871,-0.032599449157714844,0.0054779332131147385
1685471923436870000,10.878869873046876,9.792831420898438,-0.03244622051715851,-0.0075369467958807945
1685471923456870000,10.898869873046875,9.786050796508789,-0.046744391322135925,0.0072783734649419785
1685471923476870000,10.918869873046875,9.781003952026367,-0.044896069914102554,-0.0052002063021063805
1685471923496870000,10.938869873046874,9.778715133666992,-0.03649721294641495,0.014499285258352757
1685471923516871400,10.958871337890624,9.792150497436523,-0.026202142238616943,-0.012612654827535152
1685471923536870000,10.978869873046875,9.79487133026123,-0.043373361229896545,0.009184157475829124
1685471923556870000,10.998869873046875,9.774088859558105,-0.030588321387767792,0.001101332833059132
1685471923576870000,11.018869873046874,9.788780212402344,-0.04000232368707657,0.0052002063021063805
1685471923596870000,11.038869873046876,9.799199104309082,-0.03622906282544136,0.011176133528351784
1685471923616870000,11.058869873046875,9.792879104614258,-0.034064702689647675,-0.003677493892610073
1685471923636870000,11.078869873046875,9.787190437316895,-0.025962723419070244,-0.006780379451811314
1685471923656870000,11.098869873046874,9.778571128845215,-0.03113419935107231,-0.001436521066352725
1685471923676870000,11.118869873046876,9.785082817077637,-0.03713885322213173,0.001628057099878788
1685471923696870000,11.138869873046875,9.805405616760254,-0.03360501304268837,0.006876147352159023
1685471923716870000,11.158869873046875,9.800741195678711,-0.04083550348877907,0.00003830722562270239
1685471923736870000,11.178869873046875,9.799582481384277,-0.0279642753303051,0.008101978339254856
1685471923756870000,11.198869873046876,9.790828704833984,-0.0348404236137867,0.01188481692224741
1685471923776870000,11.218869873046875,9.782411575317383,-0.038211461156606674,0.014556746929883957
1685471923796870000,11.238869873046875,9.785179138183594,-0.03187161311507225,-0.007690175902098417
1685471923816871400,11.258871337890625,9.786970138549805,-0.036861129105091095,0.007115567568689585
1685471923836870000,11.278869873046874,9.784153938293457,-0.04106534644961357,-0.0035242647863924503
1685471923856870000,11.298869873046876,9.787726402282715,-0.030990546569228172,-0.006598419509828091
1685471923876870000,11.318869873046875,9.792619705200195,-0.03837426379323006,-0.00027772740577347577
1685471923896870000,11.338869873046875,9.794353485107422,-0.045556869357824326,0.0026431987062096596
1685471923916870000,11.358869873046874,9.772164344787598,-0.04659116268157959,-0.019555838778614998
1685471923936870000,11.378869873046876,9.781453132629395,-0.036698322743177414,0.002240972826257348
1685471923956870000,11.398869873046875,9.795196533203125,-0.033356018364429474,0.0004405330982990563
1685471923976870000,11.418869873046875,9.797236442565918,-0.023185448721051216,0.003907337319105864
1685471923996870000,11.438869873046874,9.795762062072754,-0.023185448721051216,-0.0020781669300049543
1685471924016870000,11.458869873046876,9.809427261352539,-0.046648625284433365,0.011664550751447678
1685471924036870000,11.478869873046875,9.791825294494629,-0.03151727095246315,0.009308655746281147
1685471924056870000,11.498869873046875,9.782143592834473,-0.02511996403336525,0.02310883440077305
1685471924076870000,11.518869873046874,9.778428077697754,-0.033068712800741196,-0.0068091098219156265
1685471924096870000,11.538869873046876,9.786548614501953,-0.02158612199127674,0.005612008739262819
1685471924116870000,11.558869873046875,9.789392471313477,-0.023807941004633904,-0.012670115567743778
1685471924136870000,11.578869873046875,9.79153823852539,-0.03667916730046272,0.0026910826563835144
1685471924156870000,11.598869873046874,9.783761978149414,-0.026700137183070183,0.008963891305029392
1685471924176870000,11.618869873046876,9.805156707763672,-0.044685378670692444,0.00839885976165533
1685471924196870000,11.638869873046875,9.804831504821777,-0.04056735336780548,-0.010438719764351845
1685471924216870000,11.658869873046875,9.796623229980469,-0.047405194491147995,-0.0030741551890969276
1685471924236870000,11.678869873046875,9.789900779724121,-0.043852198868989944,-0.013924676924943924
1685471924256870000,11.698869873046876,9.789249420166016,-0.0406343899667263,0.0042808325961232185
1685471924276871400,11.718871337890626,9.793482780456543,-0.03293463960289955,-0.0012737152865156531
1685471924296870000,11.738869873046875,9.782631874084473,-0.03633440285921097,-0.007738059852272272
1685471924316870000,11.758869873046875,9.79738998413086,-0.04239652305841446,0.013139378279447556
1685471924336870000,11.778869873046874,9.789440155029297,-0.03552995249629021,-0.01543781254440546
1685471924356870000,11.798869873046876,9.804974555969238,-0.05240428447723389,-0.004979939665645361
1685471924376870000,11.818869873046875,9.78663444519043,-0.039772480726242065,0.0011971008498221636
1685471924396870000,11.838869873046875,9.806363105773926,-0.03307829052209854,0.0063494229689240456
1685471924416870000,11.858869873046874,9.797599792480469,-0.025598805397748947,0.005861005745828152
1685471924436870000,11.878869873046876,9.790657043457031,-0.02445916458964348,0.0005075707449577749
1685471924456870000,11.898869873046875,9.785571098327637,-0.04093126952648163,0.0017334020230919123
1685471924476870000,11.918869873046875,9.791460990905762,-0.04588248208165169,0.003983951639384031
1685471924496870000,11.938869873046874,9.78353214263916,-0.0279642753303051,-0.012411542236804962
1685471924516870000,11.958869873046876,9.79432487487793,-0.029850905761122704,0.015303737483918667
1685471924536870000,11.978869873046875,9.794794082641602,-0.03652593865990639,-0.003878606716170907
1685471924556870000,11.998869873046875,9.793453216552734,-0.05312254652380943,0.011118672788143158
1685471924576870000,12.018869873046874,9.791193008422852,-0.04395754262804985,0.009864110499620438
1685471924596870000,12.038869873046876,9.797992706298828,-0.03227383643388748,-0.0036391867324709892
1685471924616870000,12.058869873046875,9.787142753601074,-0.03665044158697128,0.005707777105271816
1685471924636870000,12.078869873046875,9.803135871887207,-0.0345914252102375,-0.002413355279713869
1685471924656870000,12.098869873046874,9.7927827835083,-0.03477338328957558,0.00869574025273323
1685471924676870000,12.118869873046876,9.795713424682617,-0.04057693108916283,-0.01218169741332531
1685471924696870000,12.138869873046875,9.794296264648438,-0.041927263140678406,0.009030928835272789
1685471924716870000,12.158869873046875,9.80330753326416,-0.034323275089263916,0.007651868741959333
1685471924736870000,12.178869873046875,9.802695274353027,-0.032762255519628525,-0.0075369467958807945
1685471924756870000,12.198869873046876,9.7979736328125,-0.03897760435938835,0.0021930888760834932
1685471924776870000,12.218869873046875,9.7846040725708,-0.026144681498408318,0.005822698585689068
1685471924796870000,12.238869873046875,9.797369956970215,-0.03831680119037628,-0.00042137951822951436
1685471924816870000,12.258869873046875,9.800119400024414,-0.03414131700992584,0.00031603462412022054
1685471924836870000,12.278869873046874,9.80162239074707,-0.046629469841718674,0.0076231383718550205
1685471924856870000,12.298869873046876,9.788569450378418,-0.03831680119037628,0.010965443216264248
1685471924876870000,12.318869873046875,9.798298835754395,-0.035434186458587646,-0.002882618922740221
1685471924896870000,12.338869873046875,9.787487030029297,-0.0360279455780983,-0.00784340500831604
1685471924916870000,12.358869873046874,9.780869483947754,-0.03746446967124939,0.004865017719566822
1685471924936870000,12.378869873046876,9.79694938659668,-0.028921956196427345,0.0027293898165225983
1685471924956870000,12.398869873046875,9.794995307922363,-0.026508601382374763,0.005755661055445671
1685471924976870000,12.418869873046875,9.796431541442871,-0.03497450053691864,-0.00018195933080278337
1685471924996870000,12.438869873046874,9.803269386291504,-0.04254017770290375,-0.012631808407604694
1685471925016870000,12.458869873046876,9.797417640686035,-0.03203441947698593,-0.01158793643116951
1685471925036870000,12.478869873046875,9.787257194519043,-0.03524265065789223,-0.005832275375723839
1685471925056870000,12.498869873046875,9.787276268005371,-0.026412831619381905,-0.011061212047934532
1685471925076870000,12.518869873046874,9.776339530944824,-0.03671747446060181,0.009375694207847118
1685471925096870000,12.538869873046876,9.792811393737793,-0.024516625329852104,-0.008781932294368744
1685471925116929300,12.55892919921875,9.800521850585938,-0.03156515583395958,0.005583278369158506
1685471925136870000,12.578869873046875,9.789650917053223,-0.026853367686271667,0.004271255806088448
1685471925156870000,12.598869873046874,9.787171363830566,-0.04305732250213623,0.0007086837431415915
1685471925176870000,12.618869873046876,9.78969955444336,-0.02670971490442753,-0.007757213432341814
1685471925196870000,12.638869873046875,9.796316146850586,-0.041103653609752655,0.0005746083916164935
1685471925216871400,12.658871337890625,9.795502662658691,-0.03218764811754227,0.0011971008498221636
1685471925236870000,12.678869873046875,9.79922866821289,-0.04127603769302368,-0.012076352722942829
1685471925256870000,12.698869873046876,9.786184310913086,-0.04139095917344093,-0.005707777105271816
1685471925276870000,12.718869873046875,9.789650917053223,-0.04386177286505699,-0.013235146179795265
1685471925296870000,12.738869873046875,9.79589557647705,-0.03370078280568123,-0.006416460499167442
1685471925316870000,12.758869873046875,9.787726402282715,-0.03373908996582031,0.005995080806314945
1685471925336870000,12.778869873046874,9.793185234069824,-0.03393062576651573,-0.009021352045238018
1685471925356870000,12.798869873046876,9.786453247070312,-0.03743573650717735,0.013503298163414001
1685471925376870000,12.818869873046875,9.793060302734375,-0.03754108399152756,0.00010534487955737859
1685471925396870000,12.838869873046875,9.787965774536133,-0.033020827919244766,0.01962287724018097
1685471925416870000,12.858869873046874,9.793922424316406,-0.02928587608039379,0.015322891063988209
1685471925436870000,12.878869873046876,9.794927597045898,-0.036315251141786575,0.016950948163866997
1685471925456870000,12.898869873046875,9.778982162475586,-0.03178542107343674,-0.00374453142285347
1685471925476870000,12.918869873046875,9.78718090057373,-0.0241718590259552,-0.004175487905740738
1685471925496870000,12.938869873046874,9.788808822631836,-0.02531149983406067,-0.0030262707732617855
1685471925516870000,12.958869873046876,9.784239768981934,-0.03490746021270752,0.006761225871741772
1685471925536870000,12.978869873046875,9.798672676086426,-0.04220498725771904,0.0006224924582056701
1685471925556870000,12.998869873046875,9.79464054107666,-0.034399889409542084,-0.003236960619688034
1685471925576870000,13.018869873046874,9.788951873779297,-0.03275267779827118,0.009528922848403454
1685471925596870000,13.038869873046876,9.8024263381958,-0.01957499235868454,0.005056553985923529
1685471925616870000,13.058869873046875,9.79432487487793,-0.031268272548913956,0.002758120186626911
1685471925636870000,13.078869873046875,9.804840087890625,-0.03380613029003143,0.004529829602688551
1685471925656870000,13.098869873046874,9.780936241149902,-0.030492553487420082,-0.0015801731497049332
1685471925676870000,13.118869873046876,9.780458450317383,-0.04140053689479828,-0.017554286867380142
1685471925696870000,13.138869873046875,9.782421112060547,-0.0394468680024147,0.007010222412645817
1685471925716870000,13.158869873046875,9.790072441101074,-0.033356018364429474,0.009548076428472996
1685471925736870000,13.178869873046875,9.789507865905762,-0.034064702689647675,0.006512228399515152
1685471925756870000,13.198869873046876,9.789727210998535,-0.03314532712101936,-0.002212242456153035
1685471925776870000,13.218869873046875,9.787975311279297,-0.04789361357688904,0.005813121795654297
1685471925796870000,13.238869873046875,9.789450645446777,-0.032120607793331146,0.0021930888760834932
1685471925816870000,13.258869873046875,9.791719436645508,-0.04196557030081749,-0.005343858152627945
1685471925836870000,13.278869873046874,9.787447929382324,-0.04641878232359886,0.0008523358264937997
1685471925856870000,13.298869873046876,9.782584190368652,-0.03191949799656868,-0.005046977195888758
1685471925876870000,13.318869873046875,9.785265922546387,-0.03615244850516319,0.0034476504661142826
1685471925896870000,13.338869873046875,9.789374351501465,-0.04553771764039993,-0.005755661055445671
1685471925916870000,13.358869873046874,9.788559913635254,-0.04571967571973801,0.0057460842654109
1685471925936870000,13.378869873046876,9.793855667114258,-0.044512998312711716,-0.0020590133499354124
1685471925956870000,13.398869873046875,9.783513069152832,-0.027006596326828003,0.00023942017287481576
1685471925976870000,13.418869873046875,9.79633617401123,-0.03810611367225647,0.012660538777709007
1685471925996870000,13.438869873046874,9.78441333770752,-0.038498762995004654,0.0075369467958807945
1685471926016870000,13.458869873046876,9.775822639465332,-0.029659369960427284,-0.0013120225630700588
1685471926036870000,13.478869873046875,9.798873901367188,-0.04593036696314812,0.00839885976165533
1685471926056870000,13.498869873046875,9.797025680541992,-0.04297113046050072,-0.009002198465168476
1685471926076870000,13.518869873046874,9.793586730957031,-0.0406343899667263,0.010457873344421387
1685471926096870000,13.538869873046876,9.7947359085083,-0.04034708812832832,0.011961431242525578
1685471926116870000,13.558869873046875,9.783943176269531,-0.038259342312812805,0.01632845588028431
1685471926136870000,13.578869873046875,9.792917251586914,-0.041620802134275436,-0.0021452046930789948
1685471926156870000,13.598869873046874,9.76645565032959,-0.03380613029003143,0.010065224021673203
1685471926176870000,13.618869873046876,9.787160873413086,-0.031670499593019485,0.00397437484934926
1685471926196870000,13.638869873046875,9.786453247070312,-0.050747498869895935,0.002882618922740221
1685471926216870000,13.658869873046875,9.784805297851562,-0.034371159970760345,-0.004050989169627428
1685471926236870000,13.678869873046875,9.790265083312988,-0.038508340716362,0.010678139515221119
1685471926256870000,13.698869873046876,9.78499698638916,-0.03158430755138397,0.005669469945132732
1685471926276870000,13.718869873046875,9.768506050109863,-0.03235045075416565,-0.004817133769392967
1685471926296870000,13.738869873046875,9.792150497436523,-0.047050848603248596,0.006464344449341297
1685471926316870000,13.758869873046875,9.785198211669922,-0.03789542242884636,0.0031699230894446373
1685471926336870000,13.778869873046874,9.783809661865234,-0.03415089473128319,0.00894473772495985
1685471926356870000,13.798869873046876,9.79487133026123,-0.03697605058550835,0.011520898900926113
1685471926376870000,13.818869873046875,9.777326583862305,-0.029803022742271423,-0.004721365869045258
1685471926396870000,13.838869873046875,9.804207801818848,-0.03143107891082764,0.0015801731497049332
1685471926416870000,13.858869873046874,9.787199020385742,-0.026508601382374763,0.01912488415837288
1685471926436870000,13.878869873046876,9.785216331481934,-0.04339251294732094,-0.003993528429418802
1685471926456870000,13.898869873046875,9.79482364654541,-0.03526180237531662,-0.0063589997589588165
1685471926476870000,13.918869873046875,9.789010047912598,-0.039255332201719284,0.007240065839141607
1685471926496870000,13.938869873046874,9.776320457458496,-0.03260902687907219,-0.008858546614646912
1685471926516870000,13.958869873046876,9.794046401977539,-0.04481945559382439,-0.005889736115932465
1685471926536870000,13.978869873046875,9.793922424316406,-0.03516603633761406,-0.00674207229167223
1685471926556870000,13.998869873046875,9.79089641571045,-0.040557775646448135,-0.01334049180150032
1685471926576870000,14.018869873046874,9.793578147888184,-0.038661569356918335,0.0034572272561490536
1685471926596870000,14.038869873046876,9.786088943481445,-0.0380294993519783,0.007240065839141607
1685471926616870000,14.058869873046875,9.781051635742188,-0.04592078924179077,0.01684560440480709
1685471926636870000,14.078869873046875,9.79459285736084,-0.034035973250865936,0.0035338415764272213
1685471926656870000,14.098869873046874,9.783723831176758,-0.025771187618374825,0.004960786085575819
1685471926676870000,14.118869873046876,9.792657852172852,-0.03877649083733559,-0.005209783092141151
1685471926696870000,14.138869873046875,9.776214599609375,-0.04132392257452011,-0.01518881507217884
1685471926716870000,14.158869873046875,9.795684814453125,-0.037905003875494,-0.0030262707732617855
1685471926736870000,14.178869873046875,9.7984619140625,-0.041697416454553604,0.015380351804196835
1685471926756870000,14.198869873046876,9.79246711730957,-0.02777273952960968,-0.006607996299862862
1685471926776870000,14.218869873046875,9.786299705505371,-0.033710360527038574,0.005870582535862923
1685471926796870000,14.238869873046875,9.775956153869629,-0.03077985718846321,0.0043766009621322155
1685471926816870000,14.258869873046875,9.776808738708496,-0.043679818511009216,-0.0007757213898003101
1685471926836870000,14.278869873046874,9.784307479858398,-0.043277591466903687,-0.0019057845929637551
1685471926856870000,14.298869873046876,9.807761192321777,-0.03855622559785843,0.0029975404031574726
1685471926876870000,14.318869873046875,9.800023078918457,-0.039580944925546646,0.006100425496697426
1685471926896870000,14.338869873046875,9.773303985595703,-0.044062890112400055,-0.006675034295767546
1685471926916870000,14.358869873046874,9.780045509338379,-0.029640216380357742,-0.002566584153100848
1685471926936870000,14.378869873046876,9.786491394042969,-0.0380294993519783,-0.009165003895759583
1685471926956870000,14.398869873046875,9.788818359375,-0.04707958176732063,0.011568782851099968
1685471926976870000,14.418869873046875,9.800406455993652,-0.03683239594101906,0.012449849396944046
1685471926996870000,14.438869873046874,9.795416831970215,-0.042023029178380966,-0.005679046735167503
1685471927016870000,14.458869873046876,9.790647506713867,-0.04033751040697098,0.006665457505732775
1685471927036870000,14.478869873046875,9.78156852722168,-0.027830200269818306,0.004874594509601593
1685471927056870000,14.498869873046875,9.779807090759277,-0.03270479664206505,-0.004443638492375612
1685471927076870000,14.518869873046874,9.783416748046875,-0.03360501304268837,0.014777013100683689
1685471927096870000,14.538869873046876,9.79094409942627,-0.031220389530062675,-0.0023463177494704723
1685471927116870000,14.558869873046875,9.790828704833984,-0.041764453053474426,0.0010342950699850917
1685471927136870000,14.578869873046875,9.786998748779297,-0.043095629662275314,0.01928768865764141
1685471927156871400,14.598871337890625,9.784575462341309,-0.04319139942526817,0.0015514427796006203
1685471927176870000,14.618869873046876,9.786730766296387,-0.027811046689748764,0.0043766009621322155
1685471927196870000,14.638869873046875,9.783148765563965,-0.044541727751493454,-0.0010055646998807788
1685471927216870000,14.658869873046875,9.7855806350708,-0.04487691447138786,-0.004175487905740738
1685471927236870000,14.678869873046875,9.774606704711914,-0.042501870542764664,-0.0028060043696314096
1685471927256870000,14.698869873046876,9.794478416442871,-0.04851610213518143,0.0018387469463050365
1685471927276870000,14.718869873046875,9.7850923538208,-0.025608381256461143,-0.001158793573267758
1685471927296870000,14.738869873046875,9.801736831665039,-0.023989900946617126,0.006540958769619465
1685471927316870000,14.758869873046875,9.79143238067627,-0.03769431263208389,0.005324704572558403
1685471927336870000,14.778869873046874,9.786683082580566,-0.03284844756126404,0.008552088402211666
1685471927356870000,14.798869873046876,9.794841766357422,-0.037569813430309296,-0.004893748089671135
1685471927376870000,14.818869873046875,9.800032615661621,-0.02386540174484253,-0.00938527099788189
1685471927396870000,14.838869873046875,9.795052528381348,-0.022601265460252762,0.010946289636194706
1685471927416870000,14.858869873046874,9.77975845336914,-0.037857115268707275,-0.001120486413128674
1685471927436870000,14.878869873046876,9.781960487365723,-0.02308010496199131,-0.0018291701562702656
1685471927456870000,14.898869873046875,9.787160873413086,-0.046457089483737946,0.0013599065132439137
1685471927476870000,14.918869873046875,9.793453216552734,-0.043708544224500656,0.013656526803970337
1685471927496870000,14.938869873046874,9.780879020690918,-0.04067269712686539,-0.0008714894065633416
1685471927516870000,14.958869873046876,9.789958000183105,-0.02009214088320732,0.0030837319791316986
1685471927536870000,14.978869873046875,9.787946701049805,-0.033356018364429474,0.0018291701562702656
1685471927556870000,14.998869873046875,9.786041259765625,-0.03334644436836243,0.0018770541064441204
1685471927576870000,15.018869873046874,9.789880752563477,-0.022620419040322304,-0.00039264908991754055
1685471927596870000,15.038869873046876,9.7816162109375,-0.03739742934703827,0.0019057845929637551
1685471927616870000,15.058869873046875,9.781990051269531,-0.0386328399181366,0.00494163203984499
1685471927636870000,15.078869873046875,9.801948547363281,-0.04564306139945984,0.006445190869271755
1685471927656870000,15.098869873046874,9.794373512268066,-0.026029760017991066,0.00958638358861208
1685471927676870000,15.118869873046876,9.794775009155273,-0.05556463077664375,-0.008446743711829185
1685471927696870000,15.138869873046875,9.770306587219238,-0.040912117809057236,-0.006646303925663233
1685471927716870000,15.158869873046875,9.787735939025879,-0.04170699417591095,0.008207323029637337
1685471927736870000,15.178869873046875,9.775296211242676,-0.038019925355911255,-0.012909535318613052
1685471927756870000,15.198869873046876,9.780486106872559,-0.030990546569228172,0.007441178895533085
1685471927776870000,15.218869873046875,9.798624992370605,-0.0392170213162899,-0.003706224262714386
1685471927796870000,15.238869873046875,9.774884223937988,-0.036171600222587585,0.011051634326577187
1685471927816871400,15.258871337890625,9.793846130371094,-0.027906814590096474,0.0015514427796006203
1685471927836870000,15.278869873046874,9.798758506774902,-0.03961925208568573,0.0031794998794794083
1685471927856870000,15.298869873046876,9.794410705566406,-0.044206537306308746,0.007910442538559437
1685471927876870000,15.318869873046875,9.79966926574707,-0.03535757213830948,0.009519346058368683
1685471927896870000,15.338869873046875,9.79187297821045,-0.029611486941576004,0.0017046716529875994
1685471927916870000,15.358869873046874,9.80156421661377,-0.03658340126276016,-0.005372588522732258
1685471927936870000,15.378869873046876,9.794583320617676,-0.045259989798069,-0.004357446916401386
1685471927956870000,15.398869873046875,9.789229393005371,-0.03553953021764755,-0.003888183506205678
1685471927976870000,15.418869873046875,9.788396835327148,-0.03903506323695183,0.01563892513513565
1685471927996870000,15.438869873046874,9.77551555633545,-0.04204218462109566,0.0051810527220368385
1685471928016870000,15.458869873046876,9.786299705505371,-0.03534799441695213,-0.007259219419211149
1685471928036870000,15.478869873046875,9.769808769226074,-0.0324653722345829,0.001934514963068068
1685471928056870000,15.498869873046875,9.79187297821045,-0.011080365628004074,0.01904826983809471
1685471928076870000,15.518869873046874,9.77747917175293,-0.032877177000045776,0.005420472472906113
1685471928096870000,15.538869873046876,9.773514747619629,-0.034869153052568436,0.0010438719764351845
1685471928116870000,15.558869873046875,9.779308319091797,-0.028644230216741562,-0.002413355279713869
1685471928136870000,15.578869873046875,9.791757583618164,-0.024133551865816116,-0.006177040748298168
1685471928156870000,15.598869873046874,9.788272857666016,-0.04156334325671196,0.007795520592480898
1685471928176870000,15.618869873046876,9.790072441101074,-0.026317063719034195,0.0076327151618897915
1685471928196870000,15.638869873046875,9.784440994262695,-0.021806389093399048,-0.0013790600933134556
1685471928216870000,15.658869873046875,9.782976150512695,-0.04269340634346008,-0.011674127541482449
1685471928236870000,15.678869873046875,9.783283233642578,-0.02386540174484253,-0.00893516093492508
1685471928256870000,15.698869873046876,9.791787147521973,-0.038948871195316315,0.004663905128836632
1685471928276870000,15.718869873046875,9.776521682739258,-0.02687252126634121,-0.013905523344874382
1685471928296870000,15.738869873046875,9.795377731323242,-0.024085668846964836,-0.0004309563082642853
1685471928316870000,15.758869873046875,9.792121887207031,-0.03153642639517784,-0.0009097966831177473
1685471928336870000,15.778869873046874,9.788501739501953,-0.03509899601340294,-0.005363011732697487
1685471928356870000,15.798869873046876,9.803461074829102,-0.04497268423438072,-0.005889736115932465
1685471928376870000,15.818869873046875,9.784911155700684,-0.05027823522686958,-0.012650961987674236
1685471928396870000,15.838869873046875,9.793204307556152,-0.033854011446237564,0.008571241982281208
1685471928416870000,15.858869873046874,9.800224304199219,-0.02917095459997654,0.0008427590364590287
1685471928436870000,15.878869873046876,9.792984008789062,-0.03526180237531662,0.015907075256109238
1685471928456870000,15.898869873046875,9.783665657043457,-0.042023029178380966,-0.007738059852272272
1685471928476870000,15.918869873046875,9.787323951721191,-0.03354755416512489,0.0012737152865156531
1685471928496870000,15.938869873046874,9.782698631286621,-0.03884352743625641,0.004769249819219112
1685471928516870000,15.958869873046876,9.796632766723633,-0.030578745529055595,0.00848505087196827
1685471928536871400,15.978871337890626,9.798567771911621,-0.03283886983990669,-0.0036200329195708036
1685471928556870000,15.998869873046875,9.793089866638184,-0.03463931009173393,0.0014844050165265799
1685471928576870000,16.018869873046874,9.79121208190918,-0.03303998336195946,0.00794874969869852
1685471928596870000,16.038869873046874,9.780926704406738,-0.024698585271835327,-0.009471462108194828
1685471928616870000,16.058869873046874,9.79633617401123,-0.030032865703105927,0.0063589997589588165
1685471928636870000,16.078869873046877,9.777383804321289,-0.03125869855284691,-0.0003734954516403377
1685471928656870000,16.098869873046876,9.795637130737305,-0.03702393174171448,0.006071695126593113
1685471928676870000,16.118869873046876,9.802494049072266,-0.03270479664206505,-0.0012066776398569345
1685471928696870000,16.138869873046875,9.776397705078125,-0.044091615825891495,0.0006224924582056701
1685471928716870000,16.158869873046875,9.796967506408691,-0.02511996403336525,-0.0021452046930789948
1685471928736870000,16.178869873046875,9.781826972961426,-0.023300372064113617,-0.005592855159193277
1685471928756870000,16.198869873046874,9.800559997558594,-0.02374090440571308,-0.0035051112063229084
1685471928776871400,16.218871337890626,9.79072380065918,-0.03859453275799751,-0.008350975811481476
1685471928796870000,16.238869873046873,9.771723747253418,-0.03818272799253464,-0.0011683704797178507
1685471928816870000,16.258869873046876,9.790350914001465,-0.03599921613931656,-0.008925584144890308
1685471928836870000,16.278869873046876,9.7868070602417,-0.033001676201820374,-0.001915361382998526
1685471928856870000,16.298869873046876,9.773035049438477,-0.046648625284433365,0.002126051113009453
1685471928876870000,16.318869873046875,9.789948463439941,-0.03668874874711037,-0.0012641384964808822
1685471928896870000,16.338869873046875,9.772058486938477,-0.03277183324098587,-0.005679046735167503
1685471928916870000,16.358869873046874,9.777057647705078,-0.03663128614425659,0.002212242456153035
1685471928936870000,16.378869873046874,9.787822723388672,-0.034677617251873016,0.0047405194491147995
1685471928956870000,16.398869873046873,9.782440185546875,-0.044656649231910706,0.00014365209790412337
1685471928976870000,16.418869873046877,9.793309211730957,-0.038307227194309235,-0.006090848706662655
1685471928996870000,16.438869873046876,9.784642219543457,-0.030703242868185043,0.002288856776431203
1685471929016870000,16.458869873046876,9.788396835327148,-0.020906168967485428,0.015581464394927025
1685471929036870000,16.478869873046875,9.794995307922363,-0.03775177523493767,-0.008887276984751225
1685471929056870000,16.498869873046875,9.783339500427246,-0.040960002690553665,0.002394201699644327
1685471929076870000,16.518869873046874,9.783158302307129,-0.04116111248731613,0.01458547729998827
1685471929096870000,16.538869873046874,9.788827896118164,-0.031699229031801224,-0.011654973961412907
1685471929116870000,16.558869873046874,9.796431541442871,-0.028088774532079697,0.0013790600933134556
1685471929136870000,16.578869873046877,9.781683921813965,-0.03191949799656868,0.01079306099563837
1685471929156870000,16.598869873046876,9.790245056152344,-0.04535575956106186,0.013139378279447556
1685471929176870000,16.618869873046876,9.780668258666992,-0.04049073904752731,0.003696647472679615
1685471929196870000,16.638869873046875,9.799630165100098,-0.0364876314997673,0.0026431987062096596
1685471929216870000,16.658869873046875,9.793769836425781,-0.02478477731347084,-0.0051140147261321545
1685471929236870000,16.678869873046875,9.79726505279541,-0.04580586776137352,0.0007278373232111335
1685471929256870000,16.698869873046874,9.781635284423828,-0.041055772453546524,-0.0033231519628316164
1685471929276870000,16.718869873046874,9.793827056884766,-0.0335283987224102,0.00023942017287481576
1685471929296870000,16.738869873046873,9.78690242767334,-0.04291366785764694,0.009174580685794353
1685471929316870000,16.758869873046876,9.791547775268555,-0.03597048670053482,-0.007211335469037294
1685471929336870000,16.778869873046876,9.789555549621582,-0.024325087666511536,0.004185064695775509
1685471929356870000,16.798869873046876,9.788483619689941,-0.04548025503754616,0.010927136056125164
1685471929376870000,16.818869873046875,9.778656959533691,-0.03312617540359497,0.002212242456153035
1685471929396870000,16.838869873046875,9.781243324279785,-0.034754231572151184,-0.0005171475349925458
1685471929416870000,16.858869873046874,9.811056137084961,-0.026719290763139725,0.0171807911247015
1685471929436870000,16.878869873046874,9.78823471069336,-0.03672705590724945,-0.002384624909609556
1685471929456870000,16.898869873046873,9.786136627197266,-0.03794331103563309,0.0051714759320020676
1685471929476870000,16.918869873046877,9.789603233337402,-0.03307829052209854,0.007201758679002523
1685471929496870000,16.938869873046876,9.80358600616455,-0.04345954954624176,-0.00031603462412022054
1685471929516870000,16.958869873046876,9.773245811462402,-0.02637452445924282,-0.002269703196361661
1685471929536870000,16.978869873046875,9.7816162109375,-0.036296095699071884,0.0024995466228574514
1685471929556870000,16.998869873046875,9.785916328430176,-0.0423007532954216,-0.0050948611460626125
1685471929576870000,17.018869873046874,9.789565086364746,-0.037636853754520416,-0.004989516455680132
1685471929596870000,17.038869873046874,9.779241561889648,-0.03793372958898544,0.01259350124746561
1685471929616870000,17.058869873046874,9.80556869506836,-0.03609498590230942,0.009749189019203186
1685471929636870000,17.078869873046877,9.79556941986084,-0.0368419773876667,0.006033387966454029
1685471929656870000,17.098869873046876,9.78450870513916,-0.02566584199666977,-0.009050082415342331
1685471929676870000,17.118869873046876,9.794717788696289,-0.035721488296985626,0.0068091098219156265
1685471929696870000,17.138869873046875,9.79476547241211,-0.029372066259384155,-0.00959596037864685
1685471929716870000,17.158869873046875,9.790081977844238,-0.03524265065789223,0.003706224262714386
1685471929736870000,17.178869873046875,9.789220809936523,-0.03819230571389198,-0.0019919758196920156
1685471929756870000,17.198869873046874,9.7949857711792,-0.03670790046453476,0.001446097856387496
1685471929776870000,17.218869873046874,9.792984008789062,-0.036985624581575394,-0.0027772739995270967
1685471929796870000,17.238869873046873,9.78614616394043,-0.04670608416199684,0.00923204142600298
1685471929816870000,17.258869873046876,9.792112350463867,-0.02803131379187107,-0.0055641247890889645
1685471929836870000,17.278869873046876,9.790963172912598,-0.03128742799162865,-0.010304644703865051
1685471929856870000,17.298869873046876,9.793146133422852,-0.0323408767580986,-0.010639832355082035
1685471929876870000,17.318869873046875,9.798624992370605,-0.03328897804021835,0.009662997908890247
1685471929896870000,17.338869873046875,9.780313491821289,-0.04049073904752731,-0.004960786085575819
1685471929916870000,17.358869873046874,9.793261528015137,-0.032810140401124954,-0.0075273700058460236
1685471929936870000,17.378869873046874,9.794794082641602,-0.029496565461158752,-0.002432508859783411
1685471929956870000,17.398869873046873,9.788176536560059,-0.03609498590230942,0.00226012640632689
1685471929976870000,17.418869873046877,9.799294471740723,-0.03664086014032364,0.006253655068576336
1685471929996870000,17.438869873046876,9.794172286987305,-0.03796246275305748,-0.00024899697746150196
1685471930016870000,17.458869873046876,9.794410705566406,-0.03595133125782013,-0.004587290342897177
1685471930036870000,17.478869873046875,9.80005168914795,-0.04151545837521553,-0.0057460842654109
1685471930056870000,17.498869873046875,9.815020561218262,-0.04050031676888466,-0.00005746084207203239
1685471930076870000,17.518869873046874,9.79312801361084,-0.03701435774564743,-0.0030262707732617855
1685471930096870000,17.538869873046874,9.781606674194336,-0.040797196328639984,0.0055545479990541935
1685471930116870000,17.558869873046874,9.781376838684082,-0.026010606437921524,0.006148310378193855
1685471930136870000,17.578869873046877,9.80370044708252,-0.03796246275305748,-0.006780379451811314
1685471930156870000,17.598869873046876,9.790273666381836,-0.02825157903134823,0.019182344898581505
1685471930176870000,17.618869873046876,9.7999267578125,-0.04526956379413605,-0.001924938173033297
1685471930196870000,17.638869873046875,9.79263973236084,-0.04374685138463974,0.0011971008498221636
1685471930216870000,17.658869873046875,9.79753303527832,-0.03268564119935036,0.009414001367986202
1685471930236870000,17.678869873046875,9.78646183013916,-0.0235780980437994,0.007891288958489895
1685471930256870000,17.698869873046874,9.787065505981445,-0.038661569356918335,0.006052541546523571
1685471930276870000,17.718869873046874,9.791604995727539,-0.04303817078471184,-0.0052002063021063805
1685471930296870000,17.738869873046873,9.788243293762207,-0.03125869855284691,0.006081271916627884
1685471930316870000,17.758869873046876,9.798490524291992,-0.032877177000045776,0.009557653218507767
1685471930336871400,17.778871337890624,9.789862632751465,-0.030482977628707886,0.0020781669300049543
1685471930356870000,17.798869873046876,9.790762901306152,-0.030751127749681473,0.0075465235859155655
1685471930376870000,17.818869873046875,9.794036865234375,-0.027811046689748764,0.0005458780215121806
1685471930396870000,17.838869873046875,9.789813995361328,-0.03239833936095238,0.003303998149931431
1685471930416870000,17.858869873046874,9.786605834960938,-0.03619075566530228,-0.0005075707449577749
1685471930436870000,17.878869873046874,9.801661491394043,-0.04054819792509079,0.011415554210543633
1685471930456870000,17.898869873046873,9.805319786071777,-0.034543540328741074,-0.012459426186978817
1685471930476870000,17.918869873046877,9.789125442504883,-0.03463931009173393,0.007967903278768063
1685471930496870000,17.938869873046876,9.800348281860352,-0.04469495639204979,-0.0029496564529836178
1685471930516870000,17.958869873046876,9.784307479858398,-0.04212837293744087,-0.003246537409722805
1685471930536870000,17.978869873046875,9.793500900268555,-0.04616978392004967,-0.013675680384039879
1685471930556870000,17.998869873046875,9.790129661560059,-0.033001676201820374,-0.0046543278731405735
1685471930576870000,18.018869873046874,9.78010368347168,-0.0348404236137867,-0.011999738402664661
1685471930596870000,18.038869873046874,9.795933723449707,-0.01782243698835373,0.007144297938793898
1685471930616870000,18.058869873046874,9.802053451538086,-0.040720582008361816,0.005410895682871342
1685471930636870000,18.078869873046877,9.793089866638184,-0.029237991198897362,-0.0006703764665871859
1685471930656870000,18.098869873046876,9.782536506652832,-0.024650702252984047,-0.00023942017287481576
1685471930676870000,18.118869873046876,9.800559997558594,-0.04760630801320076,0.008868123404681683
1685471930696870000,18.138869873046875,9.785964012145996,-0.037502776831388474,0.004252102226018906
1685471930716870000,18.158869873046875,9.800108909606934,-0.02374090440571308,0.010438719764351845
1685471930736870000,18.178869873046875,9.787793159484863,-0.031086314469575882,-0.010084377601742744
1685471930756870000,18.198869873046874,9.782851219177246,-0.04273171350359917,-0.008887276984751225
1685471930776870000,18.218869873046874,9.79202651977539,-0.032972946763038635,0.01223915908485651
1685471930796870000,18.238869873046873,9.793797492980957,-0.03410300984978676,-0.01533246785402298
1685471930816871400,18.258871337890625,9.789249420166016,-0.04552813991904259,-0.014192827045917511
1685471930836870000,18.278869873046876,9.771283149719238,-0.0350702665746212,0.0068282634019851685
1685471930856870000,18.298869873046876,9.787918090820312,-0.04616020992398262,0.0030071171931922436
1685471930876870000,18.318869873046875,9.793558120727539,-0.03301125392317772,0.008858546614646912
1685471930896870000,18.338869873046875,9.781089782714844,-0.0357789508998394,0.0034668040461838245
1685471930916871400,18.358871337890626,9.794133186340332,-0.04552813991904259,-0.007412448525428772
1685471930936870000,18.378869873046874,9.793060302734375,-0.040653545409440994,0.003687070682644844
1685471930956870000,18.398869873046873,9.789498329162598,-0.03412216156721115,0.0009959879098460078
1685471930976870000,18.418869873046877,9.777575492858887,-0.038115691393613815,0.0025857379660010338
1685471930996870000,18.438869873046876,9.796623229980469,-0.032091882079839706,0.00009576806769473478
1685471931016870000,18.458869873046876,9.788166999816895,-0.046524129807949066,-0.006531381979584694
1685471931036870000,18.478869873046875,9.789143562316895,-0.03244622051715851,-0.004223371855914593
1685471931056870000,18.498869873046875,9.80445671081543,-0.023444022983312607,-0.00006703764665871859
1685471931076870000,18.518869873046874,9.789440155029297,-0.020369866862893105,0.004491522442549467
1685471931096870000,18.538869873046874,9.797666549682617,-0.030942663550376892,0.0005650316015817225
1685471931116870000,18.558869873046874,9.782660484313965,-0.03121081367135048,-0.01059194840490818
1685471931136870000,18.578869873046877,9.777507781982422,-0.0362577885389328,-0.005276820622384548
1685471931156870000,18.598869873046876,9.796201705932617,-0.037378277629613876,0.010362105444073677
1685471931176870000,18.618869873046876,9.795206069946289,-0.030990546569228172,-0.004434061702340841
1685471931196870000,18.638869873046875,9.787334442138672,-0.03502238169312477,-0.005257667042315006
1685471931216870000,18.658869873046875,9.805376052856445,-0.036909010261297226,0.0067995330318808556
1685471931236870000,18.678869873046875,9.78891372680664,-0.04658158868551254,0.00009576806769473478
1685471931256870000,18.698869873046874,9.781912803649902,-0.03314532712101936,-0.004252102226018906
1685471931276870000,18.718869873046874,9.802570343017578,-0.01267969235777855,0.0012258312199264765
1685471931296870000,18.738869873046873,9.783014297485352,-0.028337771072983742,0.006215347908437252
1685471931316870000,18.758869873046876,9.798242568969727,-0.03907337039709091,-0.008801085874438286
1685471931336870000,18.778869873046876,9.787257194519043,-0.034562695771455765,-0.00009576806769473478
1685471931356870000,18.798869873046876,9.774654388427734,-0.05636908486485481,-0.004118026699870825
1685471931376870000,18.818869873046875,9.791346549987793,-0.045250412076711655,0.0023750481195747852
1685471931396870000,18.838869873046875,9.793472290039062,-0.03777092695236206,-0.013254300691187382
1685471931416870000,18.858869873046874,9.78650951385498,-0.03623863682150841,-0.004797980189323425
1685471931436870000,18.878869873046874,9.781204223632812,-0.02490927465260029,-0.007230489049106836
1685471931456870000,18.898869873046873,9.798423767089844,-0.03348051756620407,0.003572148969396949
1685471931476870000,18.918869873046877,9.783226013183594,-0.02990836650133133,0.001417367486283183
1685471931496870000,18.938869873046876,9.789880752563477,-0.032455798238515854,0.01459505409002304
1685471931516870000,18.958869873046876,9.78669261932373,-0.021576546132564545,0.0008714894065633416
1685471931536870000,18.978869873046875,9.80805778503418,-0.03839341551065445,-0.015552734024822712
1685471931556870000,18.998869873046875,9.794258117675781,-0.02825157903134823,0.006904877722263336
1685471931576870000,19.018869873046874,9.79121208190918,-0.04087381064891815,-0.01223915908485651
1685471931596870000,19.038869873046874,9.802484512329102,-0.04926309734582901,0.0033231519628316164
1685471931616870000,19.058869873046874,9.796067237854004,-0.04232948645949364,0.009835380129516125
1685471931636870000,19.078869873046877,9.787382125854492,-0.03877649083733559,0.0006224924582056701
1685471931656870000,19.098869873046876,9.789287567138672,-0.03379655256867409,-0.005985504016280174
1685471931676870000,19.118869873046876,9.789613723754883,-0.04189852997660637,-0.0005650316015817225
1685471931696870000,19.138869873046875,9.791020393371582,-0.04120900109410286,0.00497036287561059
1685471931716870000,19.158869873046875,9.773188591003418,-0.033633746206760406,0.008293514139950275
1685471931736870000,19.178869873046875,9.789162635803223,-0.04299028217792511,0.00452025281265378
1685471931756870000,19.198869873046874,9.790292739868164,-0.05208825320005417,-0.0017908628797158599
1685471931776870000,19.218869873046874,9.783042907714844,-0.03831680119037628,-0.006445190869271755
1685471931796870000,19.238869873046873,9.785676956176758,-0.034514810889959335,0.014326903037726879
1685471931816870000,19.258869873046876,9.786539077758789,-0.035577837377786636,0.0004692635266110301
1685471931836870000,19.278869873046876,9.790657043457031,-0.0299754049628973,0.006205771118402481
1685471931856870000,19.298869873046876,9.795186996459961,-0.036219481378793716,0.01124317105859518
1685471931876870000,19.318869873046875,9.789220809936523,-0.03168007731437683,-0.013062763959169388
1685471931896870000,19.338869873046875,9.776081085205078,-0.017755400389432907,0.007603984791785479
1685471931916870000,19.358869873046874,9.791749000549316,-0.038326382637023926,-0.020772093906998634
1685471931936870000,19.378869873046874,9.802647590637207,-0.05080495774745941,-0.0012449849164113402
1685471931956870000,19.398869873046873,9.79100227355957,-0.0360279455780983,0.0055353944189846516
1685471931976870000,19.418869873046877,9.798577308654785,-0.042655099183321,-0.00011492168414406478
1685471931996870000,19.438869873046876,9.77828311920166,-0.04049073904752731,0.007220912259072065
1685471932016870000,19.458869873046876,9.777000427246094,-0.04059608280658722,0.0020398597698658705
1685471932036870000,19.478869873046875,9.803997039794922,-0.03492661193013191,0.005985504016280174
1685471932056870000,19.498869873046875,9.783416748046875,-0.0239324402064085,-0.005343858152627945
1685471932076870000,19.518869873046874,9.772642135620117,-0.03324109688401222,0.0007374141132459044
1685471932096870000,19.538869873046874,9.792725563049316,-0.03267606347799301,0.00979707296937704
1685471932116870000,19.558869873046874,9.788081169128418,-0.027878083288669586,0.0046543278731405735
1685471932136870000,19.578869873046877,9.786079406738281,-0.03440946713089943,-0.018358737230300903
1685471932156870000,19.598869873046876,9.788358688354492,-0.02656606212258339,0.0071826050989329815
1685471932176870000,19.618869873046876,9.802206039428711,-0.03588429465889931,0.007824251428246498
1685471932196870000,19.638869873046875,9.795263290405273,-0.03002328798174858,-0.0013982137897983193
1685471932216870000,19.658869873046875,9.797696113586426,-0.03187161311507225,-0.003993528429418802
1685471932236870000,19.678869873046875,9.791691780090332,-0.02976471558213234,-0.0015610195696353912
1685471932256870000,19.698869873046874,9.799276351928711,-0.039111677557229996,0.020254945382475853
1685471932276870000,19.718869873046874,9.78433609008789,-0.03184288367629051,-0.00839885976165533
1685471932296870000,19.738869873046873,9.782267570495605,-0.03499365225434303,0.004031835589557886
1685471932316870000,19.758869873046876,9.78543758392334,-0.024851813912391663,0.012574347667396069
1685471932336870000,19.778869873046876,9.79432487487793,-0.032091882079839706,0.0005650316015817225
1685471932356870000,19.798869873046876,9.773907661437988,-0.03379655256867409,-0.004175487905740738
1685471932376870000,19.818869873046875,9.795618057250977,-0.027744008228182793,0.0058993129059672356
1685471932396870000,19.838869873046875,9.785112380981445,-0.04464707151055336,0.008006210438907146
1685471932416870000,19.858869873046874,9.781060218811035,-0.028328193351626396,0.014614207670092583
1685471932436870000,19.878869873046874,9.799965858459473,-0.0235780980437994,-0.002126051113009453
1685471932456870000,19.898869873046873,9.793951034545898,-0.04085465520620346,0.0009002198348753154
1685471932476870000,19.918869873046877,9.791441917419434,-0.04135265201330185,-0.0015035585965961218
1685471932496870000,19.938869873046876,9.79197883605957,-0.03262818232178688,0.018444929271936417
1685471932516870000,19.958869873046876,9.795540809631348,-0.040270473808050156,0.004213795065879822
1685471932536870000,19.978869873046875,9.786787986755371,-0.038067806512117386,-0.001101332833059132
1685471932556870000,19.998869873046875,9.793885231018066,-0.03697605058550835,-0.005832275375723839
1685471932576870000,20.018869873046874,9.7841157913208,-0.0306840892881155,0.010572794824838638
1685471932596870000,20.038869873046874,9.781204223632812,-0.047022122889757156,-0.00008619125583209097
1685471932616870000,20.058869873046874,9.794650077819824,-0.03639186546206474,0.0034476504661142826
1685471932636870000,20.078869873046877,9.781865119934082,-0.03293463960289955,0.0011779472697526217
1685471932656870000,20.098869873046876,9.790762901306152,-0.027744008228182793,-0.010170568712055683
1685471932676870000,20.118869873046876,9.797916412353516,-0.025455152615904808,0.00978749617934227
1685471932696870000,20.138869873046875,9.807818412780762,-0.048305410891771317,-0.00017238251166418195
1685471932716870000,20.158869873046875,9.78908634185791,-0.045441947877407074,-0.006272808648645878
1685471932736870000,20.178869873046875,9.785284042358398,-0.04608359560370445,0.007422025315463543
1685471932756870000,20.198869873046874,9.796526908874512,-0.036296095699071884,0.0008427590364590287
1685471932776870000,20.218869873046874,9.783167839050293,-0.03689943626523018,0.007824251428246498
1685471932796870000,20.238869873046873,9.786481857299805,-0.023357832804322243,0.015035586431622505
1685471932816871400,20.258871337890625,9.788683891296387,-0.04617936164140701,-0.0051906295120716095
1685471932836870000,20.278869873046876,9.78587818145752,-0.042118798941373825,0.012823344208300114
1685471932856870000,20.298869873046876,9.783454895019531,-0.0326952189207077,0.0031603462994098663
1685471932876870000,20.318869873046875,9.793042182922363,-0.03415089473128319,0.0047309426590800285
1685471932896870000,20.338869873046875,9.789852142333984,-0.03667916730046272,0.01298614963889122
1685471932916870000,20.358869873046874,9.79197883605957,-0.04413950443267822,0.0026623522862792015
1685471932936870000,20.378869873046874,9.77090072631836,-0.031249120831489563,-0.0030358475632965565
1685471932956870000,20.398869873046873,9.791375160217285,-0.045508988201618195,0.014844050630927086
1685471932976870000,20.418869873046877,9.78877067565918,-0.03161304071545601,0.015255853533744812
1685471932996870000,20.438869873046876,9.78406810760498,-0.03530968725681305,-0.00694318488240242
1685471933016870000,20.458869873046876,9.794382095336914,-0.0361332930624485,0.0015514427796006203
1685471933036870000,20.478869873046875,9.792763710021973,-0.03706223890185356,-0.003907337319105864
1685471933056870000,20.498869873046875,9.78222942352295,-0.03376782312989235,0.00013407529331743717
1685471933076870000,20.518869873046874,9.779260635375977,-0.034466926008462906,0.0019057845929637551
1685471933096870000,20.538869873046874,9.78538990020752,-0.027198132127523422,0.011971008032560349
1685471933116870000,20.558869873046874,9.787525177001953,-0.025397691875696182,-0.0035146879963576794
1685471933136870000,20.578869873046877,9.788636207580566,-0.03168007731437683,-0.001465251436457038
1685471933156870000,20.598869873046876,9.78002643585205,-0.04618893936276436,-0.000957680691499263
1685471933176870000,20.618869873046876,9.796163558959961,-0.03642059862613678,-0.0003734954516403377
1685471933196870000,20.638869873046875,9.801880836486816,-0.04002147540450096,0.0006799532566219568
1685471933216870000,20.658869873046875,9.788089752197266,-0.054233454167842865,-0.0012258312199264765
1685471933236870000,20.678869873046875,9.80343246459961,-0.042741287499666214,-0.0020015526097267866
1685471933256870000,20.698869873046874,9.796469688415527,-0.04768292233347893,-0.000976834329776466
1685471933276870000,20.718869873046874,9.80237865447998,-0.03174711391329765,0.0020398597698658705
1685471933296870000,20.738869873046873,9.791107177734375,-0.03386358916759491,0.002116474322974682
1685471933316870000,20.758869873046876,9.791422843933105,-0.028203696012496948,-0.00005746084207203239
1685471933336870000,20.778869873046876,9.787975311279297,-0.03678451478481293,-0.0034955344162881374
1685471933356870000,20.798869873046876,9.793069839477539,-0.03683239594101906,0.008216899819672108
1685471933376870000,20.818869873046875,9.787467956542969,-0.03267606347799301,0.0008619126165285707
1685471933396870000,20.838869873046875,9.793107986450195,-0.03000413440167904,-0.0063494229689240456
1685471933416870000,20.858869873046874,9.795397758483887,-0.0322355292737484,-0.0008810661965981126
1685471933436870000,20.878869873046874,9.792332649230957,-0.03634398430585861,-0.0025378537829965353
1685471933456870000,20.898869873046873,9.801440238952637,-0.03521391749382019,0.014939818531274796
1685471933476870000,20.918869873046877,9.795416831970215,-0.030894778668880463,0.00024899697746150196
1685471933496870000,20.938869873046876,9.791327476501465,-0.04673481732606888,0.005142745096236467
1685471933516870000,20.958869873046876,9.771541595458984,-0.028950687497854233,-0.0018387469463050365
1685471933536870000,20.978869873046875,9.777688980102539,-0.0342370830476284,-0.008504204452037811
1685471933556871400,20.998871337890623,9.795762062072754,-0.03702393174171448,-0.00010534487955737859
1685471933576870000,21.018869873046874,9.784393310546875,-0.02873999811708927,-0.004989516455680132
1685471933596870000,21.038869873046874,9.782698631286621,-0.04388092830777168,-0.0007182605331763625
1685471933616870000,21.058869873046874,9.779787063598633,-0.042808327823877335,0.012038045562803745
1685471933636870000,21.078869873046877,9.780936241149902,-0.037454891949892044,-0.0010917560430243611
1685471933656870000,21.098869873046876,9.79040813446045,-0.03466803953051567,-0.006157887168228626
1685471933676870000,21.118869873046876,9.801239013671875,-0.032858025282621384,0.016462530940771103
1685471933696870000,21.138869873046875,9.791097640991211,-0.02767697162926197,0.005439626052975655
1685471933716870000,21.158869873046875,9.796001434326172,-0.04507802799344063,-0.015006856061518192
1685471933736870000,21.178869873046875,9.785955429077148,-0.031105468049645424,-0.0025378537829965353
1685471933756870000,21.198869873046874,9.777383804321289,-0.03177584335207939,-0.005334281362593174
1685471933776870000,21.218869873046874,9.780562400817871,-0.0387381836771965,-0.0006033388199284673
1685471933796870000,21.238869873046873,9.781807899475098,-0.04685931280255318,0.004175487905740738
1685471933816871400,21.258871337890625,9.799400329589844,-0.03424666076898575,0.0072687966749072075
1685471933836870000,21.278869873046876,9.783321380615234,-0.0405290462076664,-0.006751649081707001
1685471933856871400,21.298871337890624,9.78969955444336,-0.030080748721957207,0.023683443665504456
1685471933876870000,21.318869873046875,9.78357982635498,-0.030550014227628708,0.005334281362593174
1685471933896870000,21.338869873046875,9.797466278076172,-0.04956955462694168,0.009576806798577309
1685471933916871400,21.358871337890626,9.80286693572998,-0.04704127460718155,0.004481945652514696
1685471933936870000,21.378869873046874,9.79627799987793,-0.03643017262220383,0.0071730283088982105
1685471933956870000,21.398869873046873,9.789996147155762,-0.03867114707827568,0.010850521735846996
1685471933976870000,21.418869873046877,9.802665710449219,-0.04588248208165169,-0.016175225377082825
1685471933996870000,21.438869873046876,9.79366397857666,-0.03748362511396408,0.001426944276317954
1685471934016870000,21.458869873046876,9.788521766662598,-0.027609933167696,0.012899958528578281
1685471934036870000,21.478869873046875,9.782095909118652,-0.0433637797832489,0.0012449849164113402
1685471934056870000,21.498869873046875,9.7949857711792,-0.030693667009472847,0.006646303925663233
1685471934076870000,21.518869873046874,9.781673431396484,-0.038661569356918335,0.007048529572784901
1685471934096870000,21.538869873046874,9.787400245666504,-0.04459919035434723,-0.006205771118402481
1685471934116870000,21.558869873046874,9.772815704345703,-0.032264262437820435,0.00914585031569004
1685471934136870000,21.578869873046877,9.779576301574707,-0.03199611231684685,0.0052002063021063805
1685471934156870000,21.598869873046876,9.79072380065918,-0.031909920275211334,-0.001599326729774475
1685471934176870000,21.618869873046876,9.781319618225098,-0.04639005288481712,0.006244078278541565
1685471934196870000,21.638869873046875,9.78178882598877,-0.02635537087917328,0.0070868367329239845
1685471934216870000,21.658869873046875,9.788013458251953,-0.03474465385079384,0.0025857379660010338
1685471934236870000,21.678869873046875,9.790963172912598,-0.05013458430767059,0.014566323719918728
1685471934256870000,21.698869873046874,9.790982246398926,-0.030492553487420082,-0.0018866308964788914
1685471934276871400,21.718871337890626,9.79836654663086,-0.03224511072039604,0.002135627903044224
1685471934296870000,21.738869873046873,9.79089641571045,-0.04533660411834717,0.007910442538559437
1685471934316870000,21.758869873046876,9.789460182189941,-0.02793554589152336,0.0033231519628316164
1685471934336870000,21.778869873046876,9.810376167297363,-0.03643017262220383,-0.004635174293071032
1685471934356870000,21.798869873046876,9.803020477294922,-0.03381570428609848,0.00017238251166418195
1685471934376870000,21.818869873046875,9.78325366973877,-0.02912306971848011,0.007709329482167959
1685471934396870000,21.838869873046875,9.8009614944458,-0.031124621629714966,-0.001110909623093903
1685471934416870000,21.858869873046874,9.795416831970215,-0.03308786824345589,0.0009864111198112369
1685471934436870000,21.878869873046874,9.789584159851074,-0.03578852862119675,0.0013215993531048298
1685471934456870000,21.898869873046873,9.799965858459473,-0.03897760435938835,0.00814028549939394
1685471934476870000,21.918869873046877,9.803174018859863,-0.02063801884651184,-0.001953668659552932
1685471934496870000,21.938869873046876,9.796939849853516,-0.04080677404999733,0.00018195933080278337
1685471934516870000,21.958869873046876,9.796076774597168,-0.03031059354543686,-0.006167463958263397
1685471934536870000,21.978869873046875,9.787343978881836,-0.04552813991904259,-0.008925584144890308
1685471934556870000,21.998869873046875,9.806401252746582,-0.04831499233841896,0.0002585737674962729
1685471934576870000,22.018869873046874,9.787314414978027,-0.03308786824345589,0.008724471554160118
1685471934596870000,22.038869873046874,9.792343139648438,-0.03855622559785843,0.003256114199757576
1685471934616870000,22.058869873046874,9.790360450744629,-0.029467834159731865,0.009816226549446583
1685471934636870000,22.078869873046877,9.794459342956543,-0.028950687497854233,0.012057199142873287
1685471934656870000,22.098869873046876,9.78989028930664,-0.042118798941373825,-0.00014365209790412337
1685471934676870000,22.118869873046876,9.788712501525879,-0.03189076483249664,0.0012737152865156531
1685471934696870000,22.138869873046875,9.795722961425781,-0.042023029178380966,0.00969172827899456
1685471934716870000,22.158869873046875,9.789392471313477,-0.03593217954039574,0.002394201699644327
1685471934736870000,22.178869873046875,9.798826217651367,-0.029917944222688675,0.0007182605331763625
1685471934756870000,22.198869873046874,9.785696029663086,-0.04281790181994438,-0.001139639993198216
1685471934776870000,22.218869873046874,9.782353401184082,-0.035654451698064804,0.011932700872421265
1685471934796870000,22.238869873046873,9.790570259094238,-0.05372588708996773,0.007240065839141607
1685471934816870000,22.258869873046876,9.781539916992188,-0.02113601379096508,0.0026336219161748886
1685471934836870000,22.278869873046876,9.804102897644043,-0.029036877676844597,-0.0015227121766656637
1685471934856870000,22.298869873046876,9.798490524291992,-0.04078762233257294,-0.010630255565047264
1685471934876870000,22.318869873046875,9.808756828308105,-0.040414124727249146,0.007345410995185375
1685471934896870000,22.338869873046875,9.787832260131836,-0.03639186546206474,0.006157887168228626
1685471934916870000,22.358869873046874,9.800310134887695,-0.035960908979177475,-0.011156979948282242
1685471934936870000,22.378869873046874,9.784748077392578,-0.02928587608039379,-0.005238513462245464
1685471934956870000,22.398869873046873,9.778800964355469,-0.03891056403517723,-0.00022026654914952815
1685471934976870000,22.418869873046877,9.789249420166016,-0.032005686312913895,0.002279279986396432
1685471934996870000,22.438869873046876,9.79508113861084,-0.04368939250707626,-0.004501099232584238
1685471935016870000,22.458869873046876,9.792150497436523,-0.03439031168818474,0.00461602071300149
1685471935036870000,22.478869873046875,9.808642387390137,-0.03668874874711037,0.0025378537829965353
1685471935056870000,22.498869873046875,9.788521766662598,-0.04388092830777168,0.005372588522732258
1685471935076870000,22.518869873046874,9.78805160522461,-0.03367205336689949,0.005123591516166925
1685471935096870000,22.538869873046874,9.807244300842285,-0.038000769913196564,0.012057199142873287
1685471935116870000,22.558869873046874,9.794995307922363,-0.03722504898905754,-0.012516886927187443
1685471935136870000,22.578869873046877,9.799582481384277,-0.031172506511211395,0.0026431987062096596
1685471935156870000,22.598869873046876,9.799945831298828,-0.04196557030081749,-0.002863465342670679
1685471935176870000,22.618869873046876,9.8029146194458,-0.026307487860322,-0.003677493892610073
1685471935196870000,22.638869873046875,9.789268493652344,-0.03643017262220383,-0.008561665192246437
1685471935216870000,22.658869873046875,9.794142723083496,-0.045700524002313614,0.003342305775731802
1685471935236870000,22.678869873046875,9.799764633178711,-0.03865199163556099,-0.008868123404681683
1685471935256870000,22.698869873046874,9.79089641571045,-0.039370253682136536,-0.004510676022619009
1685471935276870000,22.718869873046874,9.791011810302734,-0.015370775014162064,0.0046543278731405735
1685471935296870000,22.738869873046873,9.8014497756958,-0.0357789508998394,0.0025474305730313063
1685471935316870000,22.758869873046876,9.795263290405273,-0.02450704760849476,-0.01666364260017872
1685471935336870000,22.778869873046876,9.790206909179688,-0.026499025523662567,0.01758301816880703
1685471935356870000,22.798869873046876,9.78548526763916,-0.03500322625041008,0.00023942017287481576
1685471935376870000,22.818869873046875,9.791988372802734,-0.03324109688401222,0.002834734972566366
1685471935396870000,22.838869873046875,9.782670021057129,-0.015370775014162064,0.008015787228941917
1685471935416870000,22.858869873046874,9.797015190124512,-0.03128742799162865,-0.0010247182799503207
1685471935436870000,22.878869873046874,9.792016983032227,-0.033614594489336014,0.002470816019922495
1685471935456871400,22.898871337890625,9.782353401184082,-0.02762908674776554,0.0059088896960020065
1685471935476870000,22.918869873046877,9.799696922302246,-0.04061523824930191,-0.0036008793395012617
1685471935496870000,22.938869873046876,9.775285720825195,-0.04299028217792511,-0.001924938173033297
1685471935516870000,22.958869873046876,9.794343948364258,-0.04400542750954628,0.0029783868230879307
1685471935536870000,22.978869873046875,9.8016996383667,-0.040720582008361816,-0.005046977195888758
1685471935556870000,22.998869873046875,9.792323112487793,-0.04191768169403076,0.013215992599725723
1685471935576870000,23.018869873046874,9.79187297821045,-0.03410300984978676,0.005707777105271816
1685471935596870000,23.038869873046874,9.790771484375,-0.0466773584485054,-0.00939484778791666
1685471935616870000,23.058869873046874,9.796374320983887,-0.029199684038758278,-0.005774814635515213
1685471935636870000,23.078869873046877,9.800291061401367,-0.04627513140439987,0.01358948927372694
1685471935656870000,23.098869873046876,9.787601470947266,-0.05671384930610657,-0.0013790600933134556
1685471935676870000,23.118869873046876,9.793290138244629,-0.035558685660362244,0.00849462766200304
1685471935696870000,23.138869873046875,9.79153823852539,-0.054616525769233704,0.005966350436210632
1685471935716870000,23.158869873046875,9.789948463439941,-0.033566705882549286,-0.007115567568689585
1685471935736870000,23.178869873046875,9.789958000183105,-0.03656424582004547,-0.0006895300466567278
1685471935756870000,23.198869873046874,9.782018661499023,-0.03358586132526398,-0.0006703764665871859
1685471935776870000,23.218869873046874,9.796460151672363,-0.046715665608644485,0.006991068832576275
1685471935796870000,23.238869873046873,9.804275512695312,-0.03299209848046303,0.00629196222871542
1685471935816870000,23.258869873046876,9.784049034118652,-0.025991452857851982,-0.005573701579123735
1685471935836870000,23.278869873046876,9.793319702148438,-0.02942952699959278,0.0009097966831177473
1685471935856870000,23.298869873046876,9.782487869262695,-0.04884171113371849,0
1685471935876870000,23.318869873046875,9.78134822845459,-0.0400502048432827,-0.00039264908991754055
1685471935896870000,23.338869873046875,9.788617134094238,-0.03818272799253464,0.0019632454495877028
1685471935916870000,23.358869873046874,9.785073280334473,-0.04658158868551254,0.002911349292844534
1685471935936870000,23.378869873046874,9.798232078552246,-0.03867114707827568,0.010630255565047264
1685471935956870000,23.398869873046873,9.798979759216309,-0.033116597682237625,0.013215992599725723
1685471935976870000,23.418869873046877,9.788788795471191,-0.03229299187660217,-0.005305550992488861
1685471935996870000,23.438869873046876,9.796805381774902,-0.0501154288649559,-0.00419464148581028
1685471936016870000,23.458869873046876,9.776521682739258,-0.040078938007354736,0.004242525435984135
1685471936036870000,23.478869873046875,9.800434112548828,-0.026058491319417953,-0.005286397412419319
1685471936056870000,23.498869873046875,9.787151336669922,-0.046504974365234375,0.00036391866160556674
1685471936076870000,23.518869873046874,9.785571098327637,-0.03305913507938385,0.01580173149704933
1685471936096870000,23.538869873046874,9.794459342956543,-0.03868072107434273,0.00838928297162056
1685471936116870000,23.558869873046874,9.792332649230957,-0.039159562438726425,-0.004692635498940945
1685471936136870000,23.578869873046877,9.79086685180664,-0.03478296101093292,0.0012354080099612474
1685471936156870000,23.598869873046876,9.785293579101562,-0.04557602480053902,-0.00024899697746150196
1685471936176870000,23.618869873046876,9.798739433288574,-0.03255156800150871,-0.0034380736760795116
1685471936196870000,23.638869873046875,9.788195610046387,-0.03426581621170044,-0.006445190869271755
1685471936216870000,23.658869873046875,9.801928520202637,-0.042549751698970795,0.00461602071300149
1685471936236870000,23.678869873046875,9.78406810760498,-0.03954263776540756,-0.010017340071499348
1685471936256870000,23.698869873046874,9.791413307189941,-0.02846227027475834,-0.009739612229168415
1685471936276870000,23.718869873046874,9.78494930267334,-0.0328197181224823,0.002116474322974682
1685471936296870000,23.738869873046873,9.794133186340332,-0.04368939250707626,-0.004836287349462509
1685471936316870000,23.758869873046876,9.800836563110352,-0.03983951732516289,0.00913627352565527
1685471936336870000,23.778869873046876,9.779767990112305,-0.036794088780879974,0.003706224262714386
1685471936356870000,23.798869873046876,9.787055969238281,-0.03344221040606499,-0.007048529572784901
1685471936376870000,23.818869873046875,9.787055969238281,-0.027303475886583328,-0.011329363100230694
1685471936396870000,23.838869873046875,9.795167922973633,-0.030674513429403305,0.011214440688490868
1685471936416870000,23.858869873046874,9.798701286315918,-0.030272286385297775,-0.0034859576262533665
1685471936436870000,23.878869873046874,9.790043830871582,-0.046150632202625275,0.004108449909836054
1685471936456870000,23.898869873046873,9.785188674926758,-0.03852749243378639,-0.01639549247920513
1685471936476870000,23.918869873046877,9.783235549926758,-0.02611595205962658,-0.000019153612811351195
1685471936496870000,23.938869873046876,9.792036056518555,-0.048468220978975296,0.013407530263066292
1685471936516870000,23.958869873046876,9.789593696594238,-0.04179318621754646,-0.004175487905740738
1685471936536870000,23.978869873046875,9.791643142700195,-0.02888364903628826,0.015246276743710041
1685471936556870000,23.998869873046875,9.78353214263916,-0.0360279455780983,-0.00023942017287481576
1685471936576870000,24.018869873046874,9.7821044921875,-0.03859453275799751,-0.0023558945395052433
1685471936596870000,24.038869873046874,9.789555549621582,-0.0376751609146595,0.007230489049106836
1685471936616870000,24.058869873046874,9.771857261657715,-0.036554671823978424,0.008638279512524605
1685471936636870000,24.078869873046877,9.798433303833008,-0.043852198868989944,0.004252102226018906
1685471936656870000,24.098869873046876,9.788674354553223,-0.03322194144129753,0.0025187002029269934
1685471936676870000,24.118869873046876,9.798835754394531,-0.03967671096324921,0.009892841801047325
1685471936696870000,24.138869873046875,9.791441917419434,-0.03833595663309097,0.005937620066106319
1685471936716870000,24.158869873046875,9.775190353393555,-0.03160346299409866,0.004817133769392967
1685471936736870000,24.178869873046875,9.779691696166992,-0.04784572497010231,0.003897760296240449
1685471936756870000,24.198869873046874,9.786893844604492,-0.03777092695236206,-0.01239238865673542
