time,seconds_elapsed,z,y,x
1685474488957721000,0.19172119140625,-0.003455751808360219,0.00143117003608495,0.0003490658418741077
1685474488977719300,0.21171923828125,0.0014137167017906904,-0.0009773843921720982,0.0015707963611930609
1685474488997719300,0.23171923828125,0.00006981316983001307,-0.0002617993741296232,0.0003490658418741077
1685474489017721000,0.25172119140625,-0.0005235987482592463,-0.00010471975838299841,0.00017453292093705386
1685474489037721000,0.27172119140625,-0.00047123889089562,0.00029670598451048136,-0.00003490658491500653
1685474489057721000,0.29172119140625,0.00020943951676599681,-0.0005061454721726477,0.0010646508308127522
1685474489077721000,0.31172119140625,0.000017453292457503267,0.0005061454721726477,0.0010821041651070118
1685474489097719300,0.33171923828125,-0.00020943951676599681,0.00017453292093705386,-0.00024434609804302454
1685474489117719300,0.35171923828125,-0.00047123889089562,-0.00015707963029854,0.0005061454721726477
1685474489137721000,0.37172119140625,-0.0008377580670639873,0.0002617993741296232,0
1685474489157719300,0.39171923828125,0.00013962633966002613,0.00094247778179124,0.0003490658418741077
1685474489177721000,0.41172119140625,0.00040142572834156454,-0.00041887903353199363,-0.000052359879191499203
1685474489197719300,0.43171923828125,-0.00062831852119416,-0.00045378561480902135,-0.00017453292093705386
1685474489217719300,0.45171923828125,0.00010471975838299841,-0.00040142572834156454,0.00041887903353199363
1685474489237721000,0.47172119140625,0.00015707963029854,-0.00041887903353199363,-0.00008726646046852693
1685474489257721000,0.49172119140625,0.00013962633966002613,-0.00045378561480902135,-0.00003490658491500653
1685474489277719300,0.51171923828125,0.00027925267932005227,0.0007853981805965304,0.001029744278639555
1685474489297721000,0.53172119140625,0.00012217304902151227,-0.00043633230961859226,0.0005585053586401045
1685474489317721000,0.55172119140625,-0.0008552113431505859,0.0007853981805965304,-0.00019198621157556772
1685474489337719300,0.57171923828125,-0.0011344640515744686,-0.00029670598451048136,0.0006806784076616168
1685474489357719300,0.59171923828125,-0.0007330382941290736,0.00020943951676599681,0.000052359879191499203
1685474489377721000,0.61172119140625,-0.0005934119690209627,0.00027925267932005227,0.0006108652451075613
1685474489397721000,0.63172119140625,-0.0005759586347267032,0.00022689280740451068,-0.0006632251315750182
1685474489417721000,0.65172119140625,-0.00022689280740451068,-0.00017453292093705386,0.00041887903353199363
1685474489437721000,0.67172119140625,-0.0005061454721726477,-0.00125663704238832,-0.0006108652451075613
1685474489457721000,0.69172119140625,-0.00029670598451048136,0.0003316125657875091,0.00027925267932005227
1685474489477719300,0.71171923828125,0.00015707963029854,-0.0006981316837482154,0.00010471975838299841
1685474489497721000,0.73172119140625,-0.000715585018042475,0.0005585053586401045,0.00024434609804302454
1685474489517721000,0.75172119140625,0.0005235987482592463,-0.00020943951676599681,0.000715585018042475
1685474489537721000,0.77172119140625,0.00003490658491500653,0.00020943951676599681,-0.00008726646046852693
1685474489557719300,0.79171923828125,0.00020943951676599681,-0.00017453292093705386,-0.00038397242315113544
1685474489577721000,0.81172119140625,-0.00003490658491500653,-0.00040142572834156454,0.0005410520825535059
1685474489597721000,0.83172119140625,0.00020943951676599681,0.00017453292093705386,0.0008726646192371845
1685474489617721000,0.85172119140625,-0.00045378561480902135,0.0003665191470645368,0.0009599310578778386
1685474489637719300,0.87171923828125,-0.00041887903353199363,0.0007853981805965304,0.0009948377264663577
1685474489657721000,0.89172119140625,0.00020943951676599681,0.00010471975838299841,0.0003490658418741077
1685474489677719300,0.91171923828125,-0.0008726646192371845,0.0010995573829859495,0.00027925267932005227
1685474489697721000,0.93172119140625,-0.000715585018042475,0.0004886921960860491,0.0010471974965184927
1685474489717721000,0.95172119140625,-0.00043633230961859226,0.000052359879191499203,0.0007504915702156723
1685474489737721000,0.97172119140625,-0.00015707963029854,0.0005934119690209627,0.00006981316983001307
1685474489757719300,0.99171923828125,-0.000052359879191499203,-0.000715585018042475,-0.0003665191470645368
1685474489777719300,1.01171923828125,-0.0008028514566831291,-0.0020943949930369854,-0.0008028514566831291
1685474489797721000,1.03172119140625,-0.0010471974965184927,0.00017453292093705386,0.0003665191470645368
1685474489817721000,1.05172119140625,-0.000017453292457503267,0.00006981316983001307,0.0008203047327697277
1685474489837721000,1.07172119140625,-0.00006981316983001307,0.000017453292457503267,-0.0005759586347267032
1685474489857721000,1.09172119140625,0.00008726646046852693,0.00027925267932005227,-0.0005410520825535059
1685474489877721000,1.11172119140625,0.00027925267932005227,0.0009948377264663577,0.00094247778179124
1685474489897721000,1.13172119140625,-0.000017453292457503267,0.0005585053586401045,0.0015009831404313445
1685474489917719300,1.15171923828125,0.00008726646046852693,-0.00040142572834156454,0.0006806784076616168
1685474489937721000,1.17172119140625,-0.00045378561480902135,0.0006457717972807586,0.001518436474725604
1685474489957721000,1.19172119140625,-0.00010471975838299841,-0.00038397242315113544,0.00015707963029854
1685474489977719300,1.21171923828125,-0.0006981316837482154,0.00003490658491500653,0.0010122909443452954
1685474489997721000,1.23172119140625,-0.00062831852119416,0.00038397242315113544,-0.0002617993741296232
1685474490017721000,1.25172119140625,-0.0010122909443452954,0.00038397242315113544,0.00031415926059708
1685474490037721000,1.27172119140625,-0.00008726646046852693,0.00019198621157556772,0.00019198621157556772
1685474490057721000,1.29172119140625,-0.00031415926059708,0.00024434609804302454,0.0006108652451075613
1685474490077721000,1.31172119140625,-0.00043633230961859226,-0.0005061454721726477,0.0005410520825535059
1685474490097721000,1.33172119140625,-0.0003665191470645368,-0.00022689280740451068,0.00006981316983001307
1685474490117721000,1.35172119140625,-0.0009599310578778386,0.0005934119690209627,0.00015707963029854
1685474490137721000,1.37172119140625,0.00020943951676599681,-0.00008726646046852693,0.00040142572834156454
1685474490157719300,1.39171923828125,-0.0008203047327697277,0.00008726646046852693,-0.00010471975838299841
1685474490177719300,1.41171923828125,-0.0006108652451075613,-0.00010471975838299841,-0.00010471975838299841
1685474490197721000,1.43172119140625,0.00010471975838299841,0.00031415926059708,0.00045378561480902135
1685474490217721000,1.45172119140625,-0.00029670598451048136,0.0003665191470645368,0.00094247778179124
1685474490237721000,1.47172119140625,-0.000052359879191499203,-0.00008726646046852693,0.00094247778179124
1685474490257719300,1.49171923828125,-0.00029670598451048136,-0.0014660765882581472,-0.00017453292093705386
1685474490277719300,1.51171923828125,-0.00012217304902151227,0.0008726646192371845,0.001745329238474369
1685474490297721000,1.53172119140625,-0.001029744278639555,0.0003665191470645368,0.00006981316983001307
1685474490317721000,1.55172119140625,-0.00012217304902151227,-0.00010471975838299841,0.0014137167017906904
1685474490337721000,1.57172119140625,0.00020943951676599681,0.0015707963611930609,0.0024260077625513077
1685474490357722600,1.59172265625,-0.0005759586347267032,0.00008726646046852693,0.0005410520825535059
1685474490377721000,1.61172119140625,-0.0007504915702156723,0.0005934119690209627,0.0013089969288557768
1685474490397719300,1.63171923828125,0.00015707963029854,0.00010471975838299841,-0.000052359879191499203
1685474490417719300,1.65171923828125,-0.00062831852119416,0.00041887903353199363,0.0008028514566831291
1685474490437721000,1.67172119140625,0,-0.00041887903353199363,0.00013962633966002613
1685474490457719300,1.69171923828125,-0.00029670598451048136,-0.00038397242315113544,-0.0005410520825535059
1685474490477719300,1.71171923828125,-0.00020943951676599681,-0.0006981316837482154,0.00015707963029854
1685474490497719300,1.73171923828125,-0.00027925267932005227,-0.0006981316837482154,0.0003665191470645368
1685474490517721000,1.75172119140625,-0.0008901178953237832,0.000052359879191499203,0.0006806784076616168
1685474490537721000,1.77172119140625,0.00027925267932005227,0.0005410520825535059,0.00008726646046852693
1685474490557721000,1.79172119140625,-0.0006806784076616168,-0.00006981316983001307,0.00024434609804302454
1685474490577719300,1.81171923828125,-0.00008726646046852693,-0.00012217304902151227,-0.000052359879191499203
1685474490597721000,1.83172119140625,0.000715585018042475,0.000017453292457503267,-0.0007679448463022709
1685474490617721000,1.85172119140625,-0.00027925267932005227,0.0005410520825535059,0.000017453292457503267
1685474490637721000,1.87172119140625,-0.00003490658491500653,-0.0004886921960860491,0.0007853981805965304
1685474490657721000,1.89172119140625,-0.00043633230961859226,-0.0008377580670639873,0.00020943951676599681
1685474490677719300,1.91171923828125,0.000052359879191499203,0.00029670598451048136,0.00040142572834156454
1685474490697721000,1.93172119140625,-0.0008203047327697277,0.00043633230961859226,-0.0008726646192371845
1685474490717721000,1.95172119140625,0.00029670598451048136,0.00027925267932005227,-0.00019198621157556772
1685474490737721000,1.97172119140625,-0.00013962633966002613,0.000017453292457503267,-0.00012217304902151227
1685474490757721000,1.99172119140625,-0.0004886921960860491,0.00038397242315113544,-0.0003490658418741077
1685474490777721000,2.01172119140625,-0.0013089969288557768,-0.0005934119690209627,0.00003490658491500653
1685474490797721000,2.03172119140625,0.00017453292093705386,0,-0.0006632251315750182
1685474490817721000,2.05172119140625,0.00013962633966002613,-0.00019198621157556772,0.0003665191470645368
1685474490837719300,2.07171923828125,0.000052359879191499203,-0.0010471974965184927,-0.00031415926059708
1685474490857721000,2.09172119140625,-0.0005410520825535059,-0.00041887903353199363,0.00017453292093705386
1685474490877721000,2.11172119140625,-0.00020943951676599681,-0.0006806784076616168,-0.00015707963029854
1685474490897721000,2.13172119140625,0.0003665191470645368,-0.00047123889089562,0.000017453292457503267
1685474490917721000,2.15172119140625,-0.00006981316983001307,-0.00012217304902151227,-0.0002617993741296232
1685474490937721000,2.17172119140625,0.00003490658491500653,-0.0005585053586401045,-0.00006981316983001307
1685474490957721000,2.19172119140625,-0.00012217304902151227,-0.0005759586347267032,-0.0016406094655394554
1685474490977719300,2.21171923828125,0.0003665191470645368,0.00038397242315113544,0.0005061454721726477
1685474490997721000,2.23172119140625,-0.0003316125657875091,-0.0003665191470645368,-0.001117010717280209
1685474491017721000,2.25172119140625,-0.00019198621157556772,-0.00003490658491500653,-0.000017453292457503267
1685474491037719300,2.27171923828125,-0.00006981316983001307,-0.0006632251315750182,0.00041887903353199363
1685474491057721000,2.29172119140625,-0.00010471975838299841,0.00031415926059708,-0.0013264502631500363
1685474491077721000,2.31172119140625,-0.00029670598451048136,0.00041887903353199363,0.0006632251315750182
1685474491097721000,2.33172119140625,-0.0003316125657875091,0.00013962633966002613,-0.00013962633966002613
1685474491117719300,2.35171923828125,0.00019198621157556772,-0.00017453292093705386,0
1685474491137721000,2.37172119140625,-0.0009948377264663577,-0.00024434609804302454,-0.00006981316983001307
1685474491157721000,2.39172119140625,-0.00020943951676599681,-0.0003665191470645368,-0.0009075712296180427
1685474491177721000,2.41172119140625,-0.0005410520825535059,-0.0012391837080940604,-0.00024434609804302454
1685474491197719300,2.43171923828125,0.0003316125657875091,-0.0006457717972807586,-0.000052359879191499203
1685474491217721000,2.45172119140625,-0.00006981316983001307,0.00012217304902151227,0.00013962633966002613
1685474491237721000,2.47172119140625,-0.0013962633674964309,-0.0009948377264663577,-0.001117010717280209
1685474491257721000,2.49172119140625,0.00020943951676599681,0.00008726646046852693,-0.0006981316837482154
1685474491277721000,2.51172119140625,0.00022689280740451068,-0.00062831852119416,-0.00029670598451048136
1685474491297721000,2.53172119140625,-0.0008203047327697277,0.00012217304902151227,0.00012217304902151227
1685474491317721000,2.55172119140625,-0.0003490658418741077,0.000017453292457503267,-0.0008377580670639873
1685474491337721000,2.57172119140625,-0.000052359879191499203,0.00003490658491500653,-0.00031415926059708
1685474491357719300,2.59171923828125,-0.001343903481028974,0.00027925267932005227,-0.0006108652451075613
1685474491377721000,2.61172119140625,0.0003665191470645368,0.00020943951676599681,-0.0013962633674964309
1685474491397721000,2.63172119140625,-0.000017453292457503267,0.00047123889089562,0.0006981316837482154
1685474491417721000,2.65172119140625,-0.00024434609804302454,0.00010471975838299841,-0.0003665191470645368
1685474491437721000,2.67172119140625,0.000052359879191499203,0.0005235987482592463,0.0005934119690209627
1685474491457721000,2.69172119140625,0.00012217304902151227,0.0011693706037476659,-0.00010471975838299841
1685474491477721000,2.71172119140625,-0.00043633230961859226,-0.00012217304902151227,-0.000715585018042475
1685474491497721000,2.73172119140625,0.00012217304902151227,-0.0006981316837482154,-0.0002617993741296232
1685474491517719300,2.75171923828125,-0.0003316125657875091,-0.0009773843921720982,-0.00027925267932005227
1685474491537721000,2.77172119140625,-0.00038397242315113544,0.00006981316983001307,-0.00010471975838299841
1685474491557721000,2.79172119140625,-0.0009250245057046413,-0.00003490658491500653,-0.0005934119690209627
1685474491577721000,2.81172119140625,-0.000052359879191499203,-0.00006981316983001307,-0.00045378561480902135
1685474491597721000,2.83172119140625,-0.0005061454721726477,-0.0024958208668977022,-0.001343903481028974
1685474491617719300,2.85171923828125,-0.0008028514566831291,-0.0006981316837482154,-0.0003490658418741077
1685474491637721000,2.87172119140625,0.0003490658418741077,-0.0003316125657875091,-0.00043633230961859226
1685474491657721000,2.89172119140625,-0.0007504915702156723,-0.0006108652451075613,-0.00038397242315113544
1685474491677721000,2.91172119140625,0.00013962633966002613,-0.000017453292457503267,-0.00029670598451048136
1685474491697719300,2.93171923828125,-0.0003665191470645368,0.00017453292093705386,0.0007679448463022709
1685474491717721000,2.95172119140625,0.00012217304902151227,-0.00094247778179124,0.00010471975838299841
1685474491737719300,2.97171923828125,-0.0008203047327697277,0,0
1685474491757721000,2.99172119140625,0.00040142572834156454,-0.00008726646046852693,0.0004886921960860491
1685474491777719300,3.01171923828125,-0.0005934119690209627,0,0.00006981316983001307
1685474491797721000,3.03172119140625,-0.00022689280740451068,0.00012217304902151227,-0.0002617993741296232
1685474491817721000,3.05172119140625,-0.000715585018042475,0.00040142572834156454,-0.00031415926059708
1685474491837721000,3.07172119140625,0.00008726646046852693,-0.000715585018042475,-0.0015533430268988013
1685474491857721000,3.09172119140625,-0.0008377580670639873,0.00003490658491500653,-0.0006981316837482154
1685474491877719300,3.11171923828125,0.00010471975838299841,-0.00008726646046852693,-0.0005235987482592463
1685474491897721000,3.13172119140625,0.00038397242315113544,-0.0005061454721726477,-0.0010995573829859495
1685474491917721000,3.15172119140625,0.0003665191470645368,-0.0005235987482592463,-0.00047123889089562
1685474491937721000,3.17172119140625,-0.0007679448463022709,-0.0016406094655394554,0.0006806784076616168
1685474491957719300,3.19171923828125,-0.00022689280740451068,-0.00022689280740451068,-0.0011519172694534063
1685474491977721000,3.21172119140625,-0.000715585018042475,-0.0003665191470645368,-0.00038397242315113544
1685474491997719300,3.23171923828125,0,-0.00020943951676599681,0.00029670598451048136
1685474492017721000,3.25172119140625,0.0005934119690209627,-0.0006981316837482154,-0.00045378561480902135
1685474492037721000,3.27172119140625,-0.0012042771559208632,-0.00008726646046852693,-0.000017453292457503267
1685474492057719300,3.29171923828125,-0.0004886921960860491,-0.00015707963029854,0.00013962633966002613
1685474492077721000,3.31172119140625,-0.00031415926059708,0.00040142572834156454,0.00020943951676599681
1685474492097721000,3.33172119140625,0.0008028514566831291,0.00015707963029854,-0.0004886921960860491
1685474492117721000,3.35172119140625,-0.00031415926059708,0.0002617993741296232,-0.0003665191470645368
1685474492137721000,3.37172119140625,-0.00038397242315113544,-0.0006806784076616168,0.0011344640515744686
1685474492157721000,3.39172119140625,0,0.00040142572834156454,-0.0003316125657875091
1685474492177719300,3.41171923828125,0.000052359879191499203,0.0006108652451075613,0.00012217304902151227
1685474492197721000,3.43172119140625,0.00017453292093705386,-0.00015707963029854,-0.0013613568153232336
1685474492217721000,3.45172119140625,-0.00012217304902151227,0.0003665191470645368,-0.00047123889089562
1685474492237721000,3.47172119140625,-0.00043633230961859226,-0.00010471975838299841,0.00020943951676599681
1685474492257721000,3.49172119140625,-0.00031415926059708,0.00043633230961859226,0
1685474492277721000,3.51172119140625,-0.0007679448463022709,-0.0018151424592360854,-0.0012042771559208632
1685474492297721000,3.53172119140625,-0.00062831852119416,-0.00017453292093705386,-0.00017453292093705386
1685474492317721000,3.55172119140625,-0.00008726646046852693,0,-0.0008028514566831291
1685474492337721000,3.57172119140625,-0.0004886921960860491,-0.00008726646046852693,-0.00027925267932005227
1685474492357721000,3.59172119140625,0.0003665191470645368,-0.0008377580670639873,-0.0008377580670639873
1685474492377721000,3.61172119140625,-0.000052359879191499203,-0.0003490658418741077,-0.00010471975838299841
1685474492397721000,3.63172119140625,-0.00040142572834156454,0.000017453292457503267,-0.00062831852119416
1685474492417721000,3.65172119140625,-0.00019198621157556772,-0.00038397242315113544,-0.0006632251315750182
1685474492437719300,3.67171923828125,-0.0004886921960860491,-0.0006806784076616168,0.00040142572834156454
1685474492457721000,3.69172119140625,-0.00022689280740451068,-0.0005235987482592463,-0.00019198621157556772
1685474492477721000,3.71172119140625,-0.00029670598451048136,0.0010995573829859495,-0.00045378561480902135
1685474492497721000,3.73172119140625,0.000052359879191499203,0.0004886921960860491,0.0002617993741296232
1685474492517721000,3.75172119140625,0.00017453292093705386,-0.0013089969288557768,-0.0006806784076616168
1685474492537721000,3.77172119140625,-0.0008203047327697277,-0.001483529806137085,-0.0009773843921720982
1685474492557721000,3.79172119140625,0.00027925267932005227,-0.00013962633966002613,0.0003665191470645368
1685474492577721000,3.81172119140625,-0.00029670598451048136,-0.0005759586347267032,-0.00040142572834156454
1685474492597721000,3.83172119140625,0.00008726646046852693,-0.0007504915702156723,-0.00024434609804302454
1685474492617721000,3.85172119140625,0.0006632251315750182,0.00024434609804302454,-0.00041887903353199363
1685474492637721000,3.87172119140625,0.0006632251315750182,0.00015707963029854,0.0010646508308127522
1685474492657721000,3.89172119140625,-0.0005235987482592463,-0.00010471975838299841,-0.0004886921960860491
1685474492677721000,3.91172119140625,0.00013962633966002613,-0.00006981316983001307,-0.0005585053586401045
1685474492697721000,3.93172119140625,-0.0006632251315750182,-0.00031415926059708,0
1685474492717721000,3.95172119140625,-0.00062831852119416,-0.00094247778179124,-0.00031415926059708
1685474492737721000,3.97172119140625,-0.00003490658491500653,0.00024434609804302454,-0.0009948377264663577
1685474492757721000,3.99172119140625,0.0006108652451075613,-0.0003490658418741077,-0.0009948377264663577
1685474492777721000,4.01172119140625,-0.00020943951676599681,-0.0005061454721726477,0.0014660765882581472
1685474492797721000,4.03172119140625,0.0006108652451075613,0.00029670598451048136,0.0004886921960860491
1685474492817721000,4.05172119140625,-0.001029744278639555,0.0005410520825535059,0.0006108652451075613
1685474492837721000,4.07172119140625,-0.00012217304902151227,0.0003316125657875091,-0.00040142572834156454
1685474492857721000,4.09172119140625,0.00006981316983001307,-0.0012391837080940604,-0.0008377580670639873
1685474492877719300,4.11171923828125,-0.001029744278639555,0.00143117003608495,0.00012217304902151227
1685474492897721000,4.13172119140625,0.0003490658418741077,0.0009250245057046413,-0.0007330382941290736
1685474492917721000,4.15172119140625,0.00022689280740451068,0.0006806784076616168,0.000017453292457503267
1685474492937721000,4.17172119140625,-0.00003490658491500653,-0.00031415926059708,-0.0003490658418741077
1685474492957721000,4.19172119140625,-0.00012217304902151227,0.0011344640515744686,0.00006981316983001307
1685474492977721000,4.21172119140625,-0.00010471975838299841,0.0015882495790719986,0.00043633230961859226
1685474492997719300,4.23171923828125,0.0004886921960860491,-0.0015882495790719986,-0.0005759586347267032
1685474493017721000,4.25172119140625,0.00013962633966002613,0.001117010717280209,-0.00038397242315113544
1685474493037721000,4.27172119140625,-0.0002617993741296232,0.0006806784076616168,-0.0009599310578778386
1685474493057721000,4.29172119140625,-0.0006108652451075613,-0.0010122909443452954,-0.0011519172694534063
1685474493077721000,4.31172119140625,-0.00022689280740451068,0.0005759586347267032,-0.0008552113431505859
1685474493097721000,4.33172119140625,-0.0005061454721726477,-0.00029670598451048136,-0.0005235987482592463
1685474493117721000,4.35172119140625,-0.0012915435945615172,0.0006632251315750182,0.00062831852119416
1685474493137719300,4.37171923828125,-0.0003665191470645368,0.00019198621157556772,0.000017453292457503267
1685474493157721000,4.39172119140625,0.00012217304902151227,0.0007853981805965304,-0.00094247778179124
1685474493177721000,4.41172119140625,-0.0005061454721726477,0.0005235987482592463,-0.00003490658491500653
1685474493197721000,4.43172119140625,0.00008726646046852693,0.001117010717280209,-0.000017453292457503267
1685474493217721000,4.45172119140625,-0.0005061454721726477,0.000715585018042475,-0.0005759586347267032
1685474493237721000,4.47172119140625,-0.00031415926059708,0.0005410520825535059,-0.00017453292093705386
1685474493257721000,4.49172119140625,0.00003490658491500653,0.00017453292093705386,-0.00012217304902151227
1685474493277721000,4.51172119140625,-0.00015707963029854,0.0007330382941290736,-0.0005759586347267032
1685474493297721000,4.53172119140625,-0.000017453292457503267,0.0013962633674964309,-0.00040142572834156454
1685474493317721000,4.55172119140625,-0.00017453292093705386,0.0002617993741296232,-0.0008028514566831291
1685474493337721000,4.57172119140625,-0.00022689280740451068,0.00012217304902151227,0
1685474493357721000,4.59172119140625,-0.001029744278639555,0,-0.0005235987482592463
1685474493377721000,4.61172119140625,0.00022689280740451068,0.00020943951676599681,0.00006981316983001307
1685474493397721000,4.63172119140625,-0.0002617993741296232,0.0008726646192371845,-0.001029744278639555
1685474493417721000,4.65172119140625,-0.00013962633966002613,0.00022689280740451068,0.00015707963029854
1685474493437721000,4.67172119140625,-0.00020943951676599681,0.0006806784076616168,-0.0008552113431505859
1685474493457721000,4.69172119140625,0.00013962633966002613,0.0002617993741296232,-0.0006806784076616168
1685474493477721000,4.71172119140625,-0.000052359879191499203,0.0006108652451075613,-0.0006632251315750182
1685474493497721000,4.73172119140625,0.0005759586347267032,0.0011344640515744686,0.0004886921960860491
1685474493517721000,4.75172119140625,0.00038397242315113544,0.0010122909443452954,-0.00038397242315113544
1685474493537721000,4.77172119140625,-0.00013962633966002613,0.0005759586347267032,-0.0006806784076616168
1685474493557721000,4.79172119140625,-0.00041887903353199363,0.00022689280740451068,-0.0002617993741296232
1685474493577721000,4.81172119140625,-0.00015707963029854,0.00047123889089562,0.0020943949930369854
1685474493597721000,4.83172119140625,0.000017453292457503267,0,-0.00062831852119416
1685474493617721000,4.85172119140625,-0.00047123889089562,0.0008377580670639873,0.00020943951676599681
1685474493637721000,4.87172119140625,0.00012217304902151227,0.0007330382941290736,-0.0008377580670639873
1685474493657721000,4.89172119140625,0.00029670598451048136,0.00020943951676599681,-0.00024434609804302454
1685474493677721000,4.91172119140625,0.00008726646046852693,0.0005061454721726477,-0.000052359879191499203
1685474493697721000,4.93172119140625,-0.00024434609804302454,0.0007330382941290736,0
1685474493717721000,4.95172119140625,-0.00062831852119416,0.0010471974965184927,-0.00094247778179124
1685474493737721000,4.97172119140625,-0.00006981316983001307,0.0009250245057046413,-0.00029670598451048136
1685474493757721000,4.99172119140625,0.00022689280740451068,0.0005061454721726477,-0.00045378561480902135
1685474493777721000,5.01172119140625,0.00010471975838299841,0.001343903481028974,-0.00040142572834156454
1685474493797721000,5.03172119140625,-0.00003490658491500653,0.0006806784076616168,-0.00012217304902151227
1685474493817721000,5.05172119140625,-0.00003490658491500653,0.0005585053586401045,-0.0010995573829859495
1685474493837721000,5.07172119140625,-0.0005061454721726477,0.000052359879191499203,-0.00010471975838299841
1685474493857721000,5.09172119140625,0.0005061454721726477,0.0015707963611930609,0.0006457717972807586
1685474493877721000,5.11172119140625,0.0003316125657875091,0.0009599310578778386,-0.00003490658491500653
1685474493897722600,5.13172265625,-0.000052359879191499203,0.00008726646046852693,-0.0006108652451075613
1685474493917721000,5.15172119140625,0.00015707963029854,0.00024434609804302454,-0.0008726646192371845
1685474493937721000,5.17172119140625,-0.0003316125657875091,0.0006108652451075613,-0.00047123889089562
1685474493957721000,5.19172119140625,0.0005410520825535059,0.00015707963029854,-0.00043633230961859226
1685474493977722600,5.21172265625,-0.00038397242315113544,0.0008203047327697277,-0.00045378561480902135
1685474493997722600,5.23172265625,0.00031415926059708,0.00062831852119416,-0.0005235987482592463
1685474494017722600,5.25172265625,-0.0008726646192371845,0.0006108652451075613,0.00020943951676599681
1685474494037722600,5.27172265625,0.0007330382941290736,0.0013089969288557768,0.0005410520825535059
1685474494057722600,5.29172265625,0.00031415926059708,0.00003490658491500653,-0.00006981316983001307
1685474494077722600,5.31172265625,0.0005410520825535059,0.0005235987482592463,0.0006632251315750182
1685474494097722600,5.33172265625,-0.00012217304902151227,0.001117010717280209,-0.0010821041651070118
1685474494117722600,5.35172265625,-0.00019198621157556772,0.0006806784076616168,0.00003490658491500653
1685474494137721000,5.37172119140625,0.00038397242315113544,0.0012042771559208632,-0.0010122909443452954
1685474494157721000,5.39172119140625,0.0005061454721726477,0.0006806784076616168,0.00008726646046852693
1685474494177722600,5.41172265625,-0.00041887903353199363,0.0006981316837482154,0.001029744278639555
1685474494197721000,5.43172119140625,0.00013962633966002613,0.0003490658418741077,0.00038397242315113544
1685474494217721000,5.45172119140625,0.00043633230961859226,0.0006108652451075613,-0.00047123889089562
1685474494237721000,5.47172119140625,0,0.00038397242315113544,0.0005410520825535059
1685474494257721000,5.49172119140625,0.00008726646046852693,0.0013613568153232336,-0.0002617993741296232
1685474494277721000,5.51172119140625,0.0005410520825535059,0.0003490658418741077,-0.00017453292093705386
1685474494297721000,5.53172119140625,0.00015707963029854,0.00043633230961859226,0.0007504915702156723
1685474494317721000,5.55172119140625,0.00029670598451048136,0.0005410520825535059,0.0004886921960860491
1685474494337721000,5.57172119140625,0.00031415926059708,-0.0006981316837482154,-0.0012042771559208632
1685474494357721000,5.59172119140625,0.00027925267932005227,0.0003316125657875091,0
1685474494377721000,5.61172119140625,-0.00027925267932005227,-0.00006981316983001307,-0.0006108652451075613
1685474494397721000,5.63172119140625,0.0005410520825535059,0.0005934119690209627,0.0003665191470645368
1685474494417721000,5.65172119140625,-0.00015707963029854,0.0013788101496174932,0.00008726646046852693
1685474494437721000,5.67172119140625,-0.00038397242315113544,0.001117010717280209,0.0003490658418741077
1685474494457721000,5.69172119140625,-0.00010471975838299841,0.0006806784076616168,0.0005585053586401045
1685474494477719300,5.71171923828125,-0.000052359879191499203,0.0018500490114092827,0.00047123889089562
1685474494497721000,5.73172119140625,-0.00015707963029854,0.00047123889089562,0.00012217304902151227
1685474494517721000,5.75172119140625,-0.00024434609804302454,0.00038397242315113544,-0.0005759586347267032
1685474494537719300,5.77171923828125,-0.00003490658491500653,0.0007853981805965304,-0.00008726646046852693
1685474494557721000,5.79172119140625,0.0005585053586401045,0.0009599310578778386,-0.000017453292457503267
1685474494577721000,5.81172119140625,0.00041887903353199363,0.0005585053586401045,-0.00022689280740451068
1685474494597721000,5.83172119140625,-0.00019198621157556772,0.00003490658491500653,-0.00047123889089562
1685474494617721000,5.85172119140625,0.000052359879191499203,0.0006981316837482154,0.00010471975838299841
1685474494637721000,5.87172119140625,-0.0005061454721726477,0.0006108652451075613,0.0007504915702156723
1685474494657722600,5.89172265625,0.0005410520825535059,0.0007330382941290736,0.00008726646046852693
1685474494677721000,5.91172119140625,-0.0009250245057046413,0.0006981316837482154,-0.0005410520825535059
1685474494697721000,5.93172119140625,0.0003316125657875091,-0.00012217304902151227,0.00013962633966002613
1685474494717722600,5.95172265625,-0.0009075712296180427,0.0015707963611930609,0.00003490658491500653
1685474494737722600,5.97172265625,0.00031415926059708,0.0007330382941290736,0.0006108652451075613
1685474494757721000,5.99172119140625,0,0.0008901178953237832,-0.0014486232539638877
1685474494777721000,6.01172119140625,0.00029670598451048136,0.00062831852119416,-0.00006981316983001307
1685474494797721000,6.03172119140625,-0.00013962633966002613,-0.00013962633966002613,-0.00010471975838299841
1685474494817721000,6.05172119140625,0.0005585053586401045,0.0011868239380419254,-0.0006981316837482154
1685474494837721000,6.07172119140625,0.00047123889089562,0.0008726646192371845,0.00029670598451048136
1685474494857721000,6.09172119140625,0,0.00038397242315113544,-0.001117010717280209
1685474494877721000,6.11172119140625,0.00024434609804302454,0.001029744278639555,-0.0008552113431505859
1685474494897721000,6.13172119140625,-0.00022689280740451068,0.0005759586347267032,-0.00013962633966002613
1685474494917722600,6.15172265625,-0.0003665191470645368,0.0003665191470645368,-0.0003490658418741077
1685474494937721000,6.17172119140625,-0.0004886921960860491,-0.00019198621157556772,0
1685474494957721000,6.19172119140625,0.00008726646046852693,0.0012391837080940604,-0.00019198621157556772
1685474494977721000,6.21172119140625,0.00041887903353199363,0.0010122909443452954,0.000017453292457503267
1685474494997721000,6.23172119140625,-0.0004886921960860491,-0.0005585053586401045,0.00024434609804302454
1685474495017721000,6.25172119140625,0.0005235987482592463,0.0005235987482592463,-0.0005235987482592463
1685474495037721000,6.27172119140625,0,0.00031415926059708,0.00020943951676599681
1685474495057721000,6.29172119140625,-0.0005585053586401045,0.00012217304902151227,-0.00047123889089562
1685474495077721000,6.31172119140625,0.0005061454721726477,0.0006981316837482154,-0.0010995573829859495
1685474495097721000,6.33172119140625,0.00003490658491500653,0.0009773843921720982,0.0003316125657875091
1685474495117721000,6.35172119140625,-0.0003665191470645368,0.0011519172694534063,-0.0002617993741296232
1685474495137721000,6.37172119140625,-0.000052359879191499203,0.0003490658418741077,0.0007330382941290736
1685474495157721000,6.39172119140625,-0.00008726646046852693,0.0008028514566831291,0.00003490658491500653
1685474495177721000,6.41172119140625,0.0007679448463022709,0.0006108652451075613,0.0011344640515744686
1685474495197721000,6.43172119140625,-0.00047123889089562,0.00008726646046852693,0.00041887903353199363
1685474495217721000,6.45172119140625,-0.00029670598451048136,0.00013962633966002613,0.0009773843921720982
1685474495237721000,6.47172119140625,-0.00017453292093705386,0.00006981316983001307,-0.0008901178953237832
1685474495257721000,6.49172119140625,0.00031415926059708,0.0012740903766825795,0.00045378561480902135
1685474495277721000,6.51172119140625,0.0005061454721726477,0.00020943951676599681,0.00038397242315113544
1685474495297721000,6.53172119140625,-0.000052359879191499203,0.00019198621157556772,0
1685474495317721000,6.55172119140625,0.00020943951676599681,0.0005759586347267032,-0.0012217304902151227
1685474495337721000,6.57172119140625,-0.00029670598451048136,0.0002617993741296232,-0.00017453292093705386
1685474495357721000,6.59172119140625,0.0003665191470645368,0.0013613568153232336,-0.000715585018042475
1685474495377721000,6.61172119140625,0.0003490658418741077,0.00031415926059708,-0.00017453292093705386
1685474495397721000,6.63172119140625,0.0002617993741296232,0.0008726646192371845,0.00003490658491500653
1685474495417721000,6.65172119140625,0.00041887903353199363,0.00031415926059708,-0.00017453292093705386
1685474495437721000,6.67172119140625,0.00008726646046852693,0.0009948377264663577,0.0003665191470645368
1685474495457721000,6.69172119140625,0.00008726646046852693,0.00027925267932005227,0.001029744278639555
1685474495477721000,6.71172119140625,-0.00041887903353199363,0.0014137167017906904,0
1685474495497721000,6.73172119140625,0.0005235987482592463,0.0009773843921720982,-0.0003490658418741077
1685474495517721000,6.75172119140625,0.00027925267932005227,0.0003490658418741077,0.0009250245057046413
1685474495537721000,6.77172119140625,-0.00045378561480902135,0.0019024088978767395,0.0005235987482592463
1685474495557721000,6.79172119140625,0.00041887903353199363,0.0006457717972807586,0.00003490658491500653
1685474495577721000,6.81172119140625,0.0005585053586401045,0.00045378561480902135,0.00017453292093705386
1685474495597721000,6.83172119140625,0.0005759586347267032,0.0011519172694534063,-0.00013962633966002613
1685474495617721000,6.85172119140625,0.000017453292457503267,0.0005061454721726477,-0.00043633230961859226
1685474495637721000,6.87172119140625,0.000715585018042475,0.00043633230961859226,0.0006632251315750182
1685474495657721000,6.89172119140625,-0.000017453292457503267,-0.000052359879191499203,-0.00038397242315113544
1685474495677721000,6.91172119140625,-0.0005759586347267032,0.0002617993741296232,-0.0003490658418741077
1685474495697721000,6.93172119140625,0.00031415926059708,0.0006981316837482154,0.0005061454721726477
1685474495717721000,6.95172119140625,0.0004886921960860491,0.00020943951676599681,-0.00038397242315113544
1685474495737721000,6.97172119140625,0.00040142572834156454,0.0008552113431505859,0.0008377580670639873
1685474495757721000,6.99172119140625,0.00013962633966002613,0.00027925267932005227,-0.00043633230961859226
1685474495777721000,7.01172119140625,0.00045378561480902135,0.001117010717280209,-0.000052359879191499203
1685474495797721000,7.03172119140625,0,0.0008377580670639873,-0.0008901178953237832
1685474495817721000,7.05172119140625,0.00029670598451048136,0.0011868239380419254,-0.00012217304902151227
1685474495837721000,7.07172119140625,0.00024434609804302454,0.00043633230961859226,-0.0005061454721726477
1685474495857721000,7.09172119140625,0.00006981316983001307,-0.00015707963029854,-0.000715585018042475
1685474495877721000,7.11172119140625,-0.00003490658491500653,0.00062831852119416,-0.0012391837080940604
1685474495897721000,7.13172119140625,-0.00017453292093705386,0.0009773843921720982,-0.0005061454721726477
1685474495917721000,7.15172119140625,0.00010471975838299841,0.0005235987482592463,-0.00020943951676599681
1685474495937719300,7.17171923828125,-0.00019198621157556772,-0.00003490658491500653,-0.00038397242315113544
1685474495957721000,7.19172119140625,0.00012217304902151227,0.0002617993741296232,0.0005410520825535059
1685474495977721000,7.21172119140625,-0.00003490658491500653,0.00041887903353199363,0.0008203047327697277
1685474495997721000,7.23172119140625,0.00043633230961859226,0.0003490658418741077,-0.00040142572834156454
1685474496017721000,7.25172119140625,0.0003316125657875091,0.0003316125657875091,0.0007679448463022709
1685474496037721000,7.27172119140625,0.0003490658418741077,0.0004886921960860491,-0.00020943951676599681
1685474496057721000,7.29172119140625,-0.0002617993741296232,0.0005759586347267032,-0.000715585018042475
1685474496077721000,7.31172119140625,0.00008726646046852693,0.0015009831404313445,0.000017453292457503267
1685474496097721000,7.33172119140625,0.00038397242315113544,0.00012217304902151227,-0.0009075712296180427
1685474496117721000,7.35172119140625,0.00038397242315113544,0.00012217304902151227,0.0007504915702156723
1685474496137721000,7.37172119140625,-0.00017453292093705386,0.0007853981805965304,0.000017453292457503267
1685474496157721000,7.39172119140625,0.0004886921960860491,0.00038397242315113544,0.00041887903353199363
1685474496177721000,7.41172119140625,0.0005061454721726477,0.0009250245057046413,-0.0007679448463022709
1685474496197721000,7.43172119140625,-0.0007330382941290736,0.00043633230961859226,-0.001658062799833715
1685474496217721000,7.45172119140625,0.0002617993741296232,0.0011868239380419254,0.0005585053586401045
1685474496237721000,7.47172119140625,-0.0004886921960860491,0.0003490658418741077,-0.00008726646046852693
1685474496257721000,7.49172119140625,0.000017453292457503267,0.0012915435945615172,0.0002617993741296232
1685474496277721000,7.51172119140625,0,0.0005061454721726477,0.0015882495790719986
1685474496297721000,7.53172119140625,0.00003490658491500653,0.00045378561480902135,-0.0005410520825535059
1685474496317721000,7.55172119140625,-0.00031415926059708,0.0016406094655394554,0.0010646508308127522
1685474496337721000,7.57172119140625,0.000017453292457503267,0.00047123889089562,0.0015882495790719986
1685474496357721000,7.59172119140625,0,0.0014660765882581472,-0.0008377580670639873
1685474496377721000,7.61172119140625,0.0005061454721726477,0.0004886921960860491,0.0007853981805965304
1685474496397721000,7.63172119140625,0.0005410520825535059,0.0013962633674964309,0.0012740903766825795
1685474496417721000,7.65172119140625,0.0008377580670639873,0,-0.0011519172694534063
1685474496437722600,7.67172265625,-0.00022689280740451068,0,-0.00045378561480902135
1685474496457722600,7.69172265625,-0.00027925267932005227,0.001117010717280209,-0.0008552113431505859
1685474496477722600,7.71172265625,0.000017453292457503267,-0.0006457717972807586,-0.0010471974965184927
1685474496497721000,7.73172119140625,0.00012217304902151227,-0.00024434609804302454,-0.0005934119690209627
1685474496517721000,7.75172119140625,0.0008377580670639873,0.0005585053586401045,-0.00012217304902151227
1685474496537721000,7.77172119140625,0.0005759586347267032,0.000052359879191499203,-0.00022689280740451068
1685474496557721000,7.79172119140625,-0.00022689280740451068,-0.0009075712296180427,0.0003490658418741077
1685474496577721000,7.81172119140625,0.00012217304902151227,0.00041887903353199363,-0.0006108652451075613
1685474496597721000,7.83172119140625,0.000052359879191499203,-0.00008726646046852693,-0.00045378561480902135
1685474496617721000,7.85172119140625,-0.00013962633966002613,-0.0008552113431505859,-0.0008726646192371845
1685474496637721000,7.87172119140625,-0.00029670598451048136,-0.0008726646192371845,-0.0009075712296180427
1685474496657721000,7.89172119140625,0.0009075712296180427,-0.0019547687843441963,-0.0012740903766825795
1685474496677721000,7.91172119140625,0.00017453292093705386,-0.0026179938577115536,-0.0012217304902151227
1685474496697721000,7.93172119140625,-0.0005585053586401045,0.0006457717972807586,-0.001117010717280209
1685474496717721000,7.95172119140625,0.0003490658418741077,0.00015707963029854,0.00041887903353199363
1685474496737721000,7.97172119140625,0.00020943951676599681,0.00024434609804302454,0
1685474496757721000,7.99172119140625,0,-0.0003316125657875091,-0.000052359879191499203
1685474496777721000,8.01172119140625,-0.000052359879191499203,0.00031415926059708,0.00003490658491500653
1685474496797721000,8.03172119140625,-0.00015707963029854,0.00006981316983001307,-0.00062831852119416
1685474496817721000,8.05172119140625,0.0003490658418741077,0.0007504915702156723,0.0005934119690209627
1685474496837721000,8.07172119140625,0,0.0005061454721726477,-0.00043633230961859226
1685474496857721000,8.09172119140625,0.00045378561480902135,0.00013962633966002613,-0.00020943951676599681
1685474496877721000,8.11172119140625,-0.00043633230961859226,-0.0011344640515744686,-0.0008028514566831291
1685474496897721000,8.13172119140625,0.00045378561480902135,-0.00022689280740451068,-0.0011344640515744686
1685474496917721000,8.15172119140625,-0.0003490658418741077,-0.00022689280740451068,-0.00015707963029854
1685474496937721000,8.17172119140625,0.00062831852119416,-0.00041887903353199363,-0.00038397242315113544
1685474496957721000,8.19172119140625,0.00003490658491500653,0.0009948377264663577,-0.00008726646046852693
1685474496977721000,8.21172119140625,0.00024434609804302454,0.00010471975838299841,-0.00024434609804302454
1685474496997721000,8.23172119140625,0.00040142572834156454,0.00008726646046852693,-0.00040142572834156454
1685474497017721000,8.25172119140625,-0.00019198621157556772,0.0008552113431505859,0.00047123889089562
1685474497037721000,8.27172119140625,0.00029670598451048136,-0.00012217304902151227,-0.001029744278639555
1685474497057721000,8.29172119140625,-0.00013962633966002613,-0.00019198621157556772,-0.00027925267932005227
1685474497077721000,8.31172119140625,-0.00010471975838299841,0.00043633230961859226,0.00024434609804302454
1685474497097721000,8.33172119140625,0.00015707963029854,0.00027925267932005227,-0.00038397242315113544
1685474497117721000,8.35172119140625,0.00029670598451048136,-0.0003316125657875091,0.00015707963029854
1685474497137721000,8.37172119140625,0.00045378561480902135,-0.0009599310578778386,-0.0016057029133662581
1685474497157721000,8.39172119140625,0.0003490658418741077,-0.0007853981805965304,-0.00062831852119416
1685474497177721000,8.41172119140625,0.00024434609804302454,-0.00015707963029854,-0.000052359879191499203
1685474497197721000,8.43172119140625,0.00019198621157556772,0.0009773843921720982,-0.0005585053586401045
1685474497217721000,8.45172119140625,0.00017453292093705386,-0.000715585018042475,-0.0016929693520069122
1685474497237721000,8.47172119140625,-0.0013788101496174932,-0.0005410520825535059,-0.00125663704238832
1685474497257721000,8.49172119140625,-0.000017453292457503267,0.00143117003608495,0.001972222002223134
1685474497277721000,8.51172119140625,0,0.00029670598451048136,-0.0009075712296180427
1685474497297721000,8.53172119140625,-0.00010471975838299841,-0.00015707963029854,-0.00012217304902151227
1685474497317721000,8.55172119140625,0.00031415926059708,-0.00045378561480902135,-0.00022689280740451068
1685474497337719300,8.57171923828125,-0.0009773843921720982,0.00017453292093705386,0.00012217304902151227
1685474497357721000,8.59172119140625,-0.0006457717972807586,-0.00012217304902151227,0.0011693706037476659
1685474497377721000,8.61172119140625,0.00010471975838299841,-0.0005235987482592463,0.00003490658491500653
1685474497397721000,8.63172119140625,-0.00027925267932005227,0.00003490658491500653,0.00006981316983001307
1685474497417721000,8.65172119140625,0,-0.0003665191470645368,0.00010471975838299841
1685474497437719300,8.67171923828125,-0.0004886921960860491,0.00020943951676599681,0.00027925267932005227
1685474497457721000,8.69172119140625,-0.0005061454721726477,-0.00022689280740451068,0.00020943951676599681
1685474497477721000,8.71172119140625,-0.00003490658491500653,-0.0008203047327697277,0.0004886921960860491
1685474497497721000,8.73172119140625,0.00045378561480902135,-0.00017453292093705386,-0.000052359879191499203
1685474497517721000,8.75172119140625,-0.00013962633966002613,-0.0008901178953237832,-0.0009773843921720982
1685474497537721000,8.77172119140625,0.00013962633966002613,-0.0012042771559208632,-0.0005934119690209627
1685474497557721000,8.79172119140625,-0.0006108652451075613,-0.00041887903353199363,0.00031415926059708
1685474497577721000,8.81172119140625,-0.00008726646046852693,-0.00094247778179124,0.00010471975838299841
1685474497597721000,8.83172119140625,-0.00029670598451048136,-0.00022689280740451068,0.00029670598451048136
1685474497617721000,8.85172119140625,0.00045378561480902135,0.0003665191470645368,0.001029744278639555
1685474497637721000,8.87172119140625,0.00045378561480902135,-0.000052359879191499203,-0.00017453292093705386
1685474497657721000,8.89172119140625,0.00013962633966002613,-0.00029670598451048136,0.00038397242315113544
1685474497677721000,8.91172119140625,0.00027925267932005227,-0.0004886921960860491,0.0008028514566831291
1685474497697721000,8.93172119140625,0.00013962633966002613,0.00041887903353199363,-0.00022689280740451068
1685474497717721000,8.95172119140625,-0.00003490658491500653,-0.00022689280740451068,-0.00013962633966002613
1685474497737721000,8.97172119140625,0.00043633230961859226,-0.0014137167017906904,0.00013962633966002613
1685474497757721000,8.99172119140625,-0.0002617993741296232,-0.0008028514566831291,0.0002617993741296232
1685474497777721000,9.01172119140625,0.00010471975838299841,0.0009599310578778386,0.00006981316983001307
1685474497797721000,9.03172119140625,-0.00029670598451048136,0.00029670598451048136,0.00041887903353199363
1685474497817721000,9.05172119140625,-0.0007853981805965304,-0.00015707963029854,0.000715585018042475
1685474497837721000,9.07172119140625,-0.0006806784076616168,-0.0006806784076616168,0.000052359879191499203
1685474497857721000,9.09172119140625,0.000715585018042475,-0.00038397242315113544,-0.00024434609804302454
1685474497877721000,9.11172119140625,0,0.00062831852119416,0.0009948377264663577
1685474497897721000,9.13172119140625,0.00047123889089562,-0.0003490658418741077,0.0011693706037476659
1685474497917721000,9.15172119140625,0.00047123889089562,0.00024434609804302454,0.0007330382941290736
1685474497937721000,9.17172119140625,0.00043633230961859226,0.00013962633966002613,0.0008203047327697277
1685474497957722600,9.19172265625,-0.00020943951676599681,-0.00012217304902151227,0.001117010717280209
1685474497977722600,9.21172265625,0.00013962633966002613,-0.0008203047327697277,0.0012217304902151227
1685474497997721000,9.23172119140625,-0.00024434609804302454,-0.0008203047327697277,0.0016406094655394554
1685474498017721000,9.25172119140625,0.00027925267932005227,-0.00038397242315113544,0.003089232835918665
1685474498037721000,9.27172119140625,-0.0008552113431505859,0.00003490658491500653,0.004363323096185923
1685474498057721000,9.29172119140625,0,-0.0031241392716765404,0.005602506920695305
1685474498077721000,9.31172119140625,-0.0004886921960860491,-0.002251474652439356,0.007417649496346712
1685474498097721000,9.33172119140625,-0.001518436474725604,-0.00020943951676599681,0.011431906372308731
1685474498117721000,9.35172119140625,-0.0017278759041801095,-0.0022689281031489372,0.014905111864209175
1685474498137721000,9.37172119140625,-0.003455751808360219,-0.0031590459402650595,0.01589994877576828
1685474498157721000,9.39172119140625,-0.002914699725806713,-0.007906341925263405,0.0005235987482592463
1685474498177721000,9.41172119140625,-0.01120501384139061,-0.004241149872541428,0.007260569836944342
1685474498197721000,9.43172119140625,-0.0003490658418741077,-0.0009075712296180427,0.019216075539588928
1685474498217721000,9.45172119140625,-0.00125663704238832,-0.003996803890913725,0.011414453387260437
1685474498237721000,9.47172119140625,-0.00013962633966002613,-0.0030194194987416267,0.01401499379426241
1685474498257721000,9.49172119140625,-0.02015855349600315,-0.0032114058267325163,0.024015730246901512
1685474498277721000,9.51172119140625,-0.0019373154500499368,-0.001029744278639555,0.02090904489159584
1685474498297721000,9.53172119140625,-0.00006981316983001307,-0.002234021434560418,0.027035150676965714
1685474498317721000,9.55172119140625,-0.0012740903766825795,-0.002286381321027875,0.04452335089445114
1685474498337721000,9.57172119140625,-0.002024581888690591,-0.007295476272702217,0.06195918843150139
1685474498357721000,9.59172119140625,-0.00031415926059708,-0.006248278543353081,0.08977973461151123
1685474498377721000,9.61172119140625,-0.0016929693520069122,-0.004310963209718466,0.12346459180116653
1685474498397721000,9.63172119140625,-0.0018675023457035422,-0.0036128314677625895,0.16983798146247864
1685474498417721000,9.65172119140625,-0.0003490658418741077,0,0.20731021463871002
1685474498437721000,9.67172119140625,-0.00010471975838299841,-0.00019198621157556772,0.24939009547233582
1685474498457721000,9.69172119140625,0.00010471975838299841,-0.00045378561480902135,0.3167947232723236
1685474498477721000,9.71172119140625,0.0005061454721726477,0.00015707963029854,0.34868186712265015
1685474498497721000,9.73172119140625,-0.00038397242315113544,0.001343903481028974,0.3520154654979706
1685474498517721000,9.75172119140625,-0.0009075712296180427,-0.0022165682166814804,0.351474404335022
1685474498537721000,9.77172119140625,-0.0015707963611930609,-0.0037000980228185654,0.3413864076137543
1685474498557721000,9.79172119140625,-0.0005934119690209627,-0.0009773843921720982,0.322013258934021
1685474498577721000,9.81172119140625,-0.0003316125657875091,-0.006230825558304787,0.3252421021461487
1685474498597721000,9.83172119140625,0.0024085543118417263,-0.0046774824149906635,0.3626968562602997
1685474498617721000,9.85172119140625,0.02295107953250408,0.002827433403581381,0.3810053765773773
1685474498637721000,9.87172119140625,0.022305307909846306,0.017575465142726898,0.3951425552368164
1685474498657721000,9.89172119140625,0.019739674404263496,0.016371188685297966,0.4086688458919525
1685474498677721000,9.91172119140625,0.014608405530452728,0.01926843449473381,0.4034677743911743
1685474498697721000,9.93172119140625,0.018936822190880775,0.0154810706153512,0.376205712556839
1685474498717721000,9.95172119140625,0.015620696358382702,0.014311700128018856,0.380115270614624
1685474498737721000,9.97172119140625,0.013194689527153969,0.004886921960860491,0.38894662261009216
1685474498757721000,9.99172119140625,0.024521876126527786,0.006405358202755451,0.3862413763999939
1685474498777721000,10.01172119140625,0.020001472905278206,0.006195918656885624,0.34924039244651794
1685474498797721000,10.03172119140625,0.019739674404263496,0.006771877408027649,0.2900388240814209
1685474498817721000,10.05172119140625,0.002600540639832616,0.004241149872541428,0.2445729821920395
1685474498837721000,10.07172119140625,0.007749261800199747,0.0007679448463022709,0.22633430361747742
1685474498857721000,10.09172119140625,0.0005759586347267032,-0.0010821041651070118,0.23945917189121246
1685474498877721000,10.11172119140625,0.00038397242315113544,-0.0008028514566831291,0.2715732455253601
1685474498897721000,10.13172119140625,0.008604473434388638,-0.00020943951676599681,0.2848028242588043
1685474498917721000,10.15172119140625,0.015917403623461723,0.005305801052600145,0.29363420605659485
1685474498937722600,10.17172265625,0.014905111864209175,0.006510077975690365,0.31292009353637695
1685474498957721000,10.19172119140625,0.010995574295520782,-0.0003665191470645368,0.3297799527645111
1685474498977721000,10.21172119140625,0.0010471974965184927,-0.0020420351065695286,0.3619987368583679
1685474498997721000,10.23172119140625,0.002687806962057948,0.0017627825727686286,0.3490484058856964
1685474499017721000,10.25172119140625,0.0015882495790719986,-0.000715585018042475,0.32995450496673584
1685474499037721000,10.27172119140625,-0.005061454605311155,-0.0077667152509093285,0.3186098635196686
1685474499057721000,10.29172119140625,0.0007679448463022709,-0.0034208453726023436,0.292691707611084
1685474499077721000,10.31172119140625,0.008970992639660835,0.0020420351065695286,0.2686759829521179
1685474499097721000,10.33172119140625,-0.001518436474725604,-0.0026179938577115536,0.2554638385772705
1685474499117721000,10.35172119140625,0.0027576202992349863,-0.0034208453726023436,0.22820179164409637
1685474499137721000,10.37172119140625,0.0006981316837482154,-0.002775073517113924,0.21366320550441742
1685474499157721000,10.39172119140625,-0.0010471974965184927,-0.00047123889089562,0.21327923238277435
1685474499177721000,10.41172119140625,-0.0027576202992349863,-0.003508111694827676,0.20060814917087555
1685474499197721000,10.43172119140625,-0.0042236968874931335,-0.001658062799833715,0.1828930526971817
1685474499217721000,10.45172119140625,-0.0026179938577115536,-0.00296705961227417,0.18551105260849
1685474499237721000,10.47172119140625,-0.003490658476948738,-0.0016755161341279745,0.18296286463737488
1685474499257721000,10.49172119140625,-0.002478367416188121,-0.0011519172694534063,0.1641831248998642
1685474499277721000,10.51172119140625,-0.00020943951676599681,-0.00013962633966002613,0.13557717204093933
1685474499297721000,10.53172119140625,0.0012740903766825795,0.00029670598451048136,0.10866419970989227
1685474499317721000,10.55172119140625,0.0005585053586401045,0.0006806784076616168,0.07129669934511185
1685474499337721000,10.57172119140625,-0.004328416660428047,-0.003228859044611454,0.038955748081207275
1685474499357721000,10.59172119140625,-0.003926991019397974,-0.003752457909286022,0.005794493015855551
1685474499377721000,10.61172119140625,-0.0023387412074953318,-0.002740166848525405,-0.018133969977498055
1685474499397721000,10.63172119140625,-0.0037873645778745413,0.001117010717280209,-0.031119219958782196
1685474499417721000,10.65172119140625,-0.003403391921892762,-0.0011693706037476659,-0.03309144079685211
1685474499437721000,10.67172119140625,-0.002460914198309183,-0.0018500490114092827,-0.026686083525419235
1685474499457721000,10.69172119140625,-0.00094247778179124,0.0006981316837482154,0.005235987715423107
1685474499477721000,10.71172119140625,-0.00043633230961859226,0.002321287989616394,0.02874557301402092
1685474499497721000,10.73172119140625,0.00047123889089562,0.0009250245057046413,0.02909463830292225
1685474499517721000,10.75172119140625,0.0009599310578778386,0.00047123889089562,0.018709929659962654
1685474499537721000,10.77172119140625,-0.0018151424592360854,-0.0009773843921720982,0.00593411922454834
1685474499557721000,10.79172119140625,-0.0031241392716765404,-0.0021816615480929613,0.007033676840364933
1685474499577721000,10.81172119140625,-0.00024434609804302454,0.0031590459402650595,-0.0005759586347267032
1685474499597721000,10.83172119140625,0.0013788101496174932,0.0020420351065695286,0.0031241392716765404
1685474499617721000,10.85172119140625,0.00017453292093705386,0.0013089969288557768,0.007435102481395006
1685474499637721000,10.87172119140625,0.0006632251315750182,0.0010821041651070118,-0.0005585053586401045
1685474499657721000,10.89172119140625,0.00015707963029854,-0.0003316125657875091,-0.004450589418411255
1685474499677722600,10.91172265625,0.0005585053586401045,0.0003665191470645368,-0.011170106939971447
1685474499697721000,10.93172119140625,-0.0016406094655394554,-0.004607669077813625,-0.02139773592352867
1685474499717721000,10.95172119140625,-0.0010646508308127522,-0.0005235987482592463,-0.02396337129175663
1685474499737721000,10.97172119140625,0,-0.0008203047327697277,-0.02312561310827732
1685474499757721000,10.99172119140625,-0.00010471975838299841,-0.0008203047327697277,-0.02382374368607998
1685474499777721000,11.01172119140625,0.00031415926059708,0.00006981316983001307,-0.037402406334877014
1685474499797721000,11.03172119140625,-0.0012217304902151227,0.0006457717972807586,-0.05003859102725983
1685474499817721000,11.05172119140625,-0.002460914198309183,-0.0016231562476605177,-0.04890412464737892
1685474499837721000,11.07172119140625,-0.002199114765971899,-0.0018151424592360854,-0.016353735700249672
1685474499857721000,11.09172119140625,0.00010471975838299841,0.00040142572834156454,0.0027576202992349863
1685474499877721000,11.11172119140625,0.00027925267932005227,-0.00015707963029854,0.01129228062927723
1685474499897721000,11.13172119140625,0.0007679448463022709,0.0016231562476605177,0.005393067374825478
1685474499917721000,11.15172119140625,0.0006806784076616168,-0.00027925267932005227,-0.015585790388286114
1685474499937722600,11.17172265625,-0.0012217304902151227,-0.0002617993741296232,-0.02324778586626053
1685474499957722600,11.19172265625,-0.0015707963611930609,-0.0022689281031489372,-0.02387610450387001
1685474499977721000,11.21172119140625,0,-0.0009250245057046413,-0.015498523600399494
1685474499997721000,11.23172119140625,-0.000052359879191499203,-0.0008203047327697277,0.0032463124953210354
1685474500017721000,11.25172119140625,-0.0003490658418741077,-0.0016057029133662581,0.017575465142726898
1685474500037721000,11.27172119140625,-0.00038397242315113544,-0.0010122909443452954,0.004625122528523207
1685474500057721000,11.29172119140625,-0.00062831852119416,-0.0004886921960860491,0.003857177682220936
1685474500077721000,11.31172119140625,0.00043633230961859226,-0.00017453292093705386,-0.0061610122211277485
1685474500097721000,11.33172119140625,-0.00003490658491500653,-0.00013962633966002613,-0.010646508075296879
1685474500117721000,11.35172119140625,-0.0008028514566831291,-0.0003316125657875091,-0.012095131911337376
1685474500137721000,11.37172119140625,0.00006981316983001307,0.00012217304902151227,-0.01219985168427229
1685474500157721000,11.39172119140625,0.0002617993741296232,-0.00040142572834156454,-0.010751227848231792
1685474500177721000,11.41172119140625,-0.0022689281031489372,-0.0007504915702156723,-0.006352998316287994
1685474500197721000,11.43172119140625,-0.0015358896926045418,-0.0010471974965184927,-0.012234757654368877
1685474500217721000,11.45172119140625,-0.00094247778179124,0.0003665191470645368,-0.012042772024869919
1685474500237721000,11.47172119140625,-0.0011519172694534063,-0.0010995573829859495,-0.017959438264369965
1685474500257721000,11.49172119140625,-0.0042236968874931335,-0.0006806784076616168,-0.008412486873567104
1685474500277722600,11.51172265625,-0.00041887903353199363,-0.002949606394395232,0.012164944782853127
1685474500297722600,11.53172265625,0.0018675023457035422,-0.0005061454721726477,0.03389429301023483
1685474500317722600,11.55172265625,0.002146754879504442,-0.0009075712296180427,0.03269001841545105
1685474500337721000,11.57172119140625,0.0014660765882581472,-0.00029670598451048136,0.004049163777381182
1685474500357722600,11.59172265625,-0.0005585053586401045,-0.001117010717280209,-0.02382374368607998
1685474500377721000,11.61172119140625,-0.00205948855727911,-0.0016929693520069122,-0.04150392860174179
1685474500397721000,11.63172119140625,-0.00020943951676599681,-0.0006108652451075613,-0.04731587693095207
1685474500417721000,11.65172119140625,0.0005759586347267032,0.0004886921960860491,-0.030281461775302887
1685474500437721000,11.67172119140625,-0.0006108652451075613,-0.0005235987482592463,-0.013386675156652927
1685474500457721000,11.69172119140625,-0.0003316125657875091,-0.0016057029133662581,-0.0012042771559208632
1685474500477721000,11.71172119140625,0.00024434609804302454,-0.00019198621157556772,0.0031415927223861217
1685474500497722600,11.73172265625,0.00024434609804302454,0.0010646508308127522,-0.013543754816055298
1685474500517721000,11.75172119140625,-0.00010471975838299841,-0.00047123889089562,-0.02649409882724285
1685474500537722600,11.77172265625,-0.0009250245057046413,0.00003490658491500653,-0.02604031190276146
1685474500557721000,11.79172119140625,0.00029670598451048136,-0.00125663704238832,-0.02090904489159584
1685474500577721000,11.81172119140625,0.00047123889089562,-0.0014486232539638877,-0.005078908056020737
1685474500597721000,11.83172119140625,0.0005235987482592463,0.00041887903353199363,0.011885692365467548
1685474500617721000,11.85172119140625,0.0007504915702156723,0.0014137167017906904,0.018325956538319588
1685474500637721000,11.87172119140625,0.0012042771559208632,0.0015533430268988013,0.009983283467590809
1685474500657721000,11.89172119140625,-0.0010471974965184927,0.00047123889089562,-0.003926991019397974
1685474500677721000,11.91172119140625,0,-0.000715585018042475,-0.013962633907794952
1685474500697721000,11.93172119140625,-0.000017453292457503267,0.0011344640515744686,-0.005270894151180983
1685474500717721000,11.95172119140625,0.00022689280740451068,0.00020943951676599681,-0.004241149872541428
1685474500737721000,11.97172119140625,-0.0012391837080940604,-0.00003490658491500653,-0.00457276264205575
1685474500757721000,11.99172119140625,0.00040142572834156454,-0.00041887903353199363,-0.012164944782853127
1685474500777721000,12.01172119140625,-0.000017453292457503267,0.0010122909443452954,-0.0114493602886796
1685474500797721000,12.03172119140625,-0.0005061454721726477,-0.0015358896926045418,-0.0007330382941290736
1685474500817721000,12.05172119140625,-0.00020943951676599681,-0.00020943951676599681,0.01441641990095377
1685474500837721000,12.07172119140625,0.00003490658491500653,0.0019373154500499368,0.013840461149811745
1685474500857721000,12.09172119140625,-0.0008552113431505859,0.0006981316837482154,-0.0005585053586401045
1685474500877721000,12.11172119140625,-0.0020420351065695286,0.0003316125657875091,-0.008028514683246613
1685474500897721000,12.13172119140625,0.0009948377264663577,0.0015358896926045418,-0.012950343079864979
1685474500917721000,12.15172119140625,-0.00040142572834156454,-0.0002617993741296232,-0.011327186599373817
1685474500937721000,12.17172119140625,0.0003665191470645368,-0.00125663704238832,0.000017453292457503267
1685474500957721000,12.19172119140625,-0.0006632251315750182,0.0008203047327697277,0.008377579972147942
1685474500977721000,12.21172119140625,0.0003316125657875091,0.001658062799833715,0.023439772427082062
1685474500997721000,12.23172119140625,0.0007504915702156723,-0.00020943951676599681,0.017610372975468636
1685474501017721000,12.25172119140625,-0.00015707963029854,-0.0013089969288557768,0.00040142572834156454
1685474501037721000,12.27172119140625,-0.0010122909443452954,-0.00015707963029854,-0.012950343079864979
1685474501057721000,12.29172119140625,-0.0013962633674964309,-0.0003316125657875091,-0.01705186627805233
1685474501077721000,12.31172119140625,0.0009075712296180427,-0.002024581888690591,-0.017121680080890656
1685474501097722600,12.33172265625,0.0007853981805965304,-0.0005585053586401045,-0.012409291230142117
1685474501117721000,12.35172119140625,0.00022689280740451068,0.0004886921960860491,-0.0020943949930369854
1685474501137721000,12.37172119140625,0.0011519172694534063,0.0018325956771150231,-0.0008552113431505859
1685474501157721000,12.39172119140625,0.0005235987482592463,-0.0003665191470645368,-0.01392772700637579
1685474501177721000,12.41172119140625,-0.0017976891249418259,-0.002146754879504442,-0.01909390278160572
1685474501197721000,12.43172119140625,-0.0031939526088535786,-0.002600540639832616,-0.0126710906624794
1685474501217721000,12.45172119140625,-0.0012217304902151227,-0.0005759586347267032,0.00022689280740451068
1685474501237721000,12.47172119140625,-0.0007679448463022709,0.0006806784076616168,0.019477874040603638
1685474501257721000,12.49172119140625,-0.0003490658418741077,-0.00017453292093705386,0.018064158037304878
1685474501277721000,12.51172119140625,0.0006457717972807586,0.0027052604127675295,0.011082841083407402
1685474501297721000,12.53172119140625,-0.0008203047327697277,-0.0008377580670639873,-0.007522369269281626
1685474501317721000,12.55172119140625,-0.003403391921892762,-0.00022689280740451068,-0.01975712738931179
1685474501337721000,12.57172119140625,-0.00043633230961859226,0.0007679448463022709,-0.020141098648309708
1685474501357721000,12.59172119140625,0.002373647876083851,0,-0.019373154267668724
1685474501377721000,12.61172119140625,0.0020769417751580477,0.00251327408477664,-0.012164944782853127
1685474501397721000,12.63172119140625,0.0011868239380419254,0.000715585018042475,-0.013840461149811745
1685474501417721000,12.65172119140625,0.00019198621157556772,0.00008726646046852693,-0.02085668407380581
1685474501437721000,12.67172119140625,0.0007853981805965304,0.0007853981805965304,-0.021188296377658844
1685474501457721000,12.69172119140625,0.0008901178953237832,0.00062831852119416,-0.01984439417719841
1685474501477721000,12.71172119140625,0.00022689280740451068,0.0020769417751580477,-0.01710422709584236
1685474501497721000,12.73172119140625,-0.00045378561480902135,-0.0013089969288557768,-0.01012290921062231
1685474501517721000,12.75172119140625,-0.000715585018042475,-0.00024434609804302454,-0.003001966280862689
1685474501537721000,12.77172119140625,-0.0010821041651070118,-0.0008901178953237832,-0.003089232835918665
1685474501557721000,12.79172119140625,-0.000715585018042475,-0.0003665191470645368,-0.006405358202755451
1685474501577721000,12.81172119140625,-0.0014486232539638877,-0.0015707963611930609,-0.008429939858615398
1685474501597721000,12.83172119140625,-0.0008901178953237832,0.0002617993741296232,-0.005654866807162762
1685474501617721000,12.85172119140625,-0.00010471975838299841,-0.0021642083302140236,-0.008918632753193378
1685474501637721000,12.87172119140625,0.000052359879191499203,-0.0006632251315750182,-0.026162484660744667
1685474501657721000,12.89172119140625,-0.0008726646192371845,-0.00094247778179124,-0.043912485241889954
1685474501677721000,12.91172119140625,-0.0025307273026555777,-0.002775073517113924,-0.055292028933763504
1685474501697721000,12.93172119140625,0.00006981316983001307,0.0003490658418741077,-0.062203533947467804
1685474501717721000,12.95172119140625,0.00041887903353199363,0.0010821041651070118,-0.06986553221940994
1685474501737721000,12.97172119140625,-0.0008726646192371845,-0.0009599310578778386,-0.08567821234464645
1685474501757721000,12.99172119140625,-0.0005934119690209627,0.00041887903353199363,-0.09342747181653976
1685474501777721000,13.01172119140625,-0.000715585018042475,0.00027925267932005227,-0.10646508634090424
1685474501797721000,13.03172119140625,0.00024434609804302454,-0.00019198621157556772,-0.1189441904425621
1685474501817721000,13.05172119140625,-0.0025656339712440968,-0.0026529005263000727,-0.1299048513174057
1685474501837721000,13.07172119140625,-0.0019547687843441963,-0.0019547687843441963,-0.13643239438533783
1685474501857721000,13.09172119140625,-0.0010471974965184927,-0.0010122909443452954,-0.13889330625534058
1685474501877721000,13.11172119140625,0.002251474652439356,0.00062831852119416,-0.15200072526931763
1685474501897721000,13.13172119140625,0.0008901178953237832,0.001483529806137085,-0.16458454728126526
1685474501917721000,13.15172119140625,0.0033859387040138245,-0.00022689280740451068,-0.18270106613636017
1685474501937721000,13.17172119140625,-0.0015533430268988013,-0.0006108652451075613,-0.20125392079353333
1685474501957721000,13.19172119140625,-0.0005235987482592463,0.0009773843921720982,-0.22746875882148743
1685474501977721000,13.21172119140625,0.006248278543353081,0.005777040030807257,-0.2592337429523468
1685474501997721000,13.23172119140625,0.007592182140797377,0.0015009831404313445,-0.27715829014778137
1685474502017721000,13.25172119140625,0.00041887903353199363,0.000715585018042475,-0.2687632441520691
1685474502037721000,13.27172119140625,0.005044001620262861,0.0005759586347267032,-0.25740116834640503
1685474502057721000,13.29172119140625,-0.00006981316983001307,0.0014137167017906904,-0.2427927553653717
1685474502077721000,13.31172119140625,-0.0011519172694534063,0.0019373154500499368,-0.22514747083187103
1685474502097721000,13.33172119140625,0.0003490658418741077,0.00188495556358248,-0.22043508291244507
1685474502117721000,13.35172119140625,-0.0010995573829859495,0.00094247778179124,-0.20518091320991516
1685474502137721000,13.37172119140625,-0.0032463124953210354,0.0005061454721726477,-0.19737929105758667
1685474502157721000,13.39172119140625,-0.0007330382941290736,0.0016929693520069122,-0.19997982680797577
1685474502177721000,13.41172119140625,0.0009773843921720982,0.002949606394395232,-0.22301816940307617
1685474502197721000,13.43172119140625,-0.000715585018042475,0.00019198621157556772,-0.2405412793159485
1685474502217721000,13.45172119140625,0.0019896754529327154,0.003263765713199973,-0.24190263450145721
1685474502237721000,13.47172119140625,0.00043633230961859226,-0.0004886921960860491,-0.2560223340988159
1685474502257721000,13.49172119140625,-0.010943214409053326,-0.003455751808360219,-0.3044028878211975
1685474502277721000,13.51172119140625,-0.022305307909846306,-0.016842426732182503,-0.3684564530849457
1685474502297721000,13.53172119140625,-0.03323106840252876,-0.024678954854607582,-0.46582838892936707
1685474502317721000,13.55172119140625,-0.0018325956771150231,-0.014433872886002064,-0.506302535533905
1685474502337721000,13.57172119140625,-0.006911503616720438,-0.0114493602886796,-0.41149628162384033
1685474502357721000,13.59172119140625,-0.007033676840364933,-0.007801621686667204,-0.28642597794532776
1685474502377721000,13.61172119140625,0.0008552113431505859,-0.0008028514566831291,-0.15789993107318878
1685474502397721000,13.63172119140625,0.0034382985904812813,0.0024958208668977022,-0.10374236851930618
1685474502417721000,13.65172119140625,0.004712388850748539,0.006440265104174614,-0.1082976832985878
1685474502437721000,13.67172119140625,0.003717551240697503,0.0020420351065695286,-0.13906782865524292
1685474502457721000,13.69172119140625,0.0025830871891230345,-0.003490658476948738,-0.17240361869335175
1685474502477721000,13.71172119140625,0.004310963209718466,-0.006126105785369873,-0.19245745241641998
1685474502497721000,13.73172119140625,-0.0009948377264663577,-0.004398229531943798,-0.1814444214105606
1685474502517721000,13.75172119140625,0.00045378561480902135,-0.00617846567183733,-0.18008306622505188
1685474502537721000,13.77172119140625,0.0021816615480929613,-0.001029744278639555,-0.19364428520202637
1685474502557721000,13.79172119140625,0.0025656339712440968,0.0023561944253742695,-0.21825341880321503
1685474502577721000,13.81172119140625,-0.0007679448463022709,0.0016755161341279745,-0.23486895859241486
1685474502597721000,13.83172119140625,-0.003909537568688393,0.00017453292093705386,-0.23692844808101654
1685474502617721000,13.85172119140625,-0.0027576202992349863,0.0025656339712440968,-0.22879521548748016
1685474502637721000,13.87172119140625,-0.00045378561480902135,-0.0011344640515744686,-0.22453661262989044
1685474502657721000,13.89172119140625,-0.0008901178953237832,-0.0003490658418741077,-0.22329741716384888
1685474502677721000,13.91172119140625,0.00041887903353199363,-0.0018325956771150231,-0.2159844934940338
1685474502697721000,13.93172119140625,0.0010646508308127522,0.0013962633674964309,-0.20463985204696655
1685474502717721000,13.95172119140625,0.000052359879191499203,0.0009948377264663577,-0.19434240460395813
1685474502737721000,13.97172119140625,0.0008552113431505859,-0.003001966280862689,-0.1843416690826416
1685474502757721000,13.99172119140625,0.00010471975838299841,0.0018325956771150231,-0.182613804936409
1685474502777721000,14.01172119140625,0.00094247778179124,0.002809980185702443,-0.196471706032753
1685474502797721000,14.03172119140625,0.00205948855727911,0.0017104226863011718,-0.21589723229408264
1685474502817721000,14.05172119140625,0.0007679448463022709,0.001343903481028974,-0.21867230534553528
1685474502837721000,14.07172119140625,0.0020420351065695286,0.004869468510150909,-0.23116885125637054
1685474502857721000,14.09172119140625,0.0023911010939627886,0.0037873645778745413,-0.23413591086864471
1685474502877721000,14.11172119140625,0.0016231562476605177,0.010576695203781128,-0.2260724902153015
1685474502897721000,14.13172119140625,0.003490658476948738,0.020490165799856186,-0.15803956985473633
1685474502917721000,14.15172119140625,0.0004886921960860491,0.0057072266936302185,-0.030892327427864075
1685474502937721000,14.17172119140625,0.00045378561480902135,0.0073303827084600925,-0.01754055917263031
1685474502957721000,14.19172119140625,0.00125663704238832,0.0067544239573180676,-0.021031217649579048
1685474502977721000,14.21172119140625,0.0005934119690209627,0.0025307273026555777,-0.019547687843441963
1685474502997721000,14.23172119140625,0.00047123889089562,0.0012042771559208632,-0.02019345946609974
1685474503017721000,14.25172119140625,0.00040142572834156454,0.000052359879191499203,-0.018133969977498055
1685474503037721000,14.27172119140625,-0.00020943951676599681,-0.0013089969288557768,-0.016091935336589813
1685474503057721000,14.29172119140625,0.00015707963029854,-0.003036872949451208,-0.019966566935181618
1685474503077721000,14.31172119140625,0.00010471975838299841,-0.0015707963611930609,-0.016371188685297966
1685474503097721000,14.33172119140625,-0.00013962633966002613,-0.004136430099606514,-0.015620696358382702
1685474503117721000,14.35172119140625,0.00045378561480902135,-0.0021293016616255045,-0.011327186599373817
1685474503137721000,14.37172119140625,-0.000017453292457503267,-0.002600540639832616,-0.009162978269159794
1685474503157721000,14.39172119140625,0,-0.003455751808360219,-0.009529497474431992
1685474503177721000,14.41172119140625,-0.00006981316983001307,-0.0010646508308127522,-0.006073745898902416
1685474503197722600,14.43172265625,-0.0006632251315750182,-0.0008203047327697277,-0.004747295752167702
1685474503217721000,14.45172119140625,-0.00024434609804302454,-0.0012391837080940604,-0.005375613924115896
1685474503237721000,14.47172119140625,-0.00008726646046852693,0.00013962633966002613,-0.005462880712002516
1685474503257721000,14.49172119140625,0.0005061454721726477,0.0005410520825535059,-0.0067544239573180676
1685474503277721000,14.51172119140625,0.00040142572834156454,0.0026529005263000727,-0.004642575979232788
1685474503297721000,14.53172119140625,0.00047123889089562,0.0021642083302140236,-0.00376991112716496
1685474503317721000,14.55172119140625,0.0008377580670639873,-0.00040142572834156454,-0.0037000980228185654
1685474503337721000,14.57172119140625,0.0011693706037476659,-0.0018325956771150231,-0.0024434609804302454
1685474503357721000,14.59172119140625,-0.0005061454721726477,-0.002234021434560418,-0.0023561944253742695
1685474503377721000,14.61172119140625,0.00022689280740451068,-0.0019547687843441963,-0.0023038345389068127
1685474503397721000,14.63172119140625,-0.00010471975838299841,-0.006527531426399946,-0.0013264502631500363
1685474503417721000,14.65172119140625,0.00012217304902151227,-0.0012740903766825795,-0.0009948377264663577
1685474503437721000,14.67172119140625,0.00041887903353199363,-0.0010995573829859495,-0.0013613568153232336
1685474503457721000,14.69172119140625,-0.00024434609804302454,-0.0016755161341279745,-0.0020769417751580477
1685474503477721000,14.71172119140625,-0.00027925267932005227,0.0010995573829859495,-0.000017453292457503267
1685474503497721000,14.73172119140625,0.0005585053586401045,-0.0015009831404313445,-0.0013264502631500363
1685474503517721000,14.75172119140625,0.0003490658418741077,-0.0009773843921720982,-0.0005410520825535059
1685474503537721000,14.77172119140625,0.000017453292457503267,-0.0009075712296180427,-0.0006632251315750182
1685474503557721000,14.79172119140625,0.00031415926059708,-0.00094247778179124,0.0002617993741296232
1685474503577721000,14.81172119140625,0.00012217304902151227,-0.0015533430268988013,-0.00015707963029854
1685474503597721000,14.83172119140625,0.00047123889089562,-0.00251327408477664,-0.0008203047327697277
1685474503617721000,14.85172119140625,0.000052359879191499203,-0.0020943949930369854,0.00017453292093705386
1685474503637721000,14.87172119140625,0.0006806784076616168,-0.004956734832376242,-0.0008552113431505859
1685474503657721000,14.89172119140625,-0.00022689280740451068,-0.00783652812242508,-0.001117010717280209
1685474503677721000,14.91172119140625,0.0006108652451075613,-0.010192723013460636,0
1685474503697721000,14.93172119140625,0.000017453292457503267,-0.012583823874592781,0.00006981316983001307
1685474503717721000,14.95172119140625,-0.0009773843921720982,-0.020874137058854103,-0.0007330382941290736
1685474503737721000,14.97172119140625,-0.0018325956771150231,-0.04244640842080116,-0.003281218931078911
1685474503757721000,14.99172119140625,-0.00125663704238832,-0.06820746511220932,-0.005393067374825478
1685474503777721000,15.01172119140625,-0.0016057029133662581,-0.08339183032512665,-0.0015358896926045418
1685474503797721000,15.03172119140625,-0.0013613568153232336,-0.09190903604030609,-0.0010995573829859495
1685474503817721000,15.05172119140625,-0.0003490658418741077,-0.06398376822471619,-0.0019198621157556772
1685474503837721000,15.07172119140625,0.00045378561480902135,-0.08614945411682129,-0.004014257341623306
1685474503857721000,15.09172119140625,0.00010471975838299841,-0.08223991096019745,-0.0026179938577115536
1685474503877721000,15.11172119140625,-0.00045378561480902135,-0.08564330637454987,0.0006457717972807586
1685474503897721000,15.13172119140625,-0.0017976891249418259,-0.08861036598682404,-0.00008726646046852693
1685474503917721000,15.15172119140625,0.00008726646046852693,-0.08272860944271088,-0.0006632251315750182
1685474503937721000,15.17172119140625,-0.0010995573829859495,-0.14048154652118683,-0.0006806784076616168
1685474503957722600,15.19172265625,-0.003298672381788492,-0.21708405017852783,-0.0015707963611930609
1685474503977721000,15.21172119140625,-0.00518362782895565,-0.35417965054512024,-0.0013962633674964309
1685474503997721000,15.23172119140625,-0.00563741335645318,-0.4645193815231323,-0.0005759586347267032
1685474504017721000,15.25172119140625,-0.005899212788790464,-0.5891708135604858,0
1685474504037721000,15.27172119140625,-0.00457276264205575,-0.6817256212234497,-0.0006806784076616168
1685474504057721000,15.29172119140625,0.015795229002833366,-0.6876772046089172,0.0008028514566831291
1685474504077721000,15.31172119140625,-0.007749261800199747,-0.6773797273635864,0.00008726646046852693
1685474504097721000,15.33172119140625,-0.0038397242315113544,-0.6918659806251526,0.001745329238474369
1685474504117721000,15.35172119140625,-0.003298672381788492,-0.6821444630622864,0.003036872949451208
1685474504137721000,15.37172119140625,0.003630284918472171,-0.6013531684875488,0.002321287989616394
1685474504157721000,15.39172119140625,0.017645278945565224,-0.4196120500564575,0.00038397242315113544
1685474504177721000,15.41172119140625,0.020874137058854103,-0.3058864176273346,0.002199114765971899
1685474504197722600,15.43172265625,0.036425020545721054,-0.29965558648109436,0.004502949304878712
1685474504217721000,15.45172119140625,0.026511551812291145,-0.34321898221969604,0.0024434609804302454
1685474504237721000,15.47172119140625,0.02436479553580284,-0.4268377125263214,0.004502949304878712
1685474504257721000,15.49172119140625,0.016894787549972534,-0.5158320665359497,0.003752457909286022
1685474504277721000,15.51172119140625,0.020141098648309708,-0.6019640564918518,0.005777040030807257
1685474504297721000,15.53172119140625,0.007138396613299847,-0.6628062129020691,0.0038222710136324167
1685474504317721000,15.55172119140625,0.003909537568688393,-0.6763848662376404,0.003455751808360219
1685474504337721000,15.57172119140625,-0.009285151958465576,-0.670922040939331,0.0009250245057046413
1685474504357722600,15.59172265625,-0.011170106939971447,-0.7043276429176331,0.0006457717972807586
1685474504377722600,15.61172265625,-0.0114493602886796,-0.6575179100036621,0.00017453292093705386
1685474504397721000,15.63172119140625,-0.011239920742809772,-0.6069557070732117,0
1685474504417721000,15.65172119140625,-0.010227628983557224,-0.5292187333106995,0.0006457717972807586
1685474504437721000,15.67172119140625,-0.010471975430846214,-0.5022708773612976,0.0003665191470645368
1685474504457722600,15.69172265625,-0.010035643354058266,-0.5007175207138062,0.0006457717972807586
1685474504477722600,15.71172265625,-0.010925761424005032,-0.506843626499176,0.0002617993741296232
1685474504497721000,15.73172119140625,-0.009407324716448784,-0.482251912355423,-0.0007679448463022709
1685474504517721000,15.75172119140625,-0.009861109778285027,-0.49759337306022644,0.00017453292093705386
1685474504537721000,15.77172119140625,-0.010088003240525723,-0.4815886914730072,0
1685474504557721000,15.79172119140625,-0.009564404375851154,-0.4530525803565979,-0.0006981316837482154
1685474504577721000,15.81172119140625,-0.008779006078839302,-0.44942227005958557,-0.0008726646192371845
1685474504597721000,15.83172119140625,-0.008028514683246613,-0.43127086758613586,0.0006981316837482154
1685474504617721000,15.85172119140625,-0.007853982038795948,-0.3867824077606201,0.0010646508308127522
1685474504637721000,15.87172119140625,-0.007661995477974415,-0.4055446982383728,-0.00019198621157556772
1685474504657721000,15.89172119140625,-0.00769690191373229,-0.36646679043769836,0.00015707963029854
1685474504677721000,15.91172119140625,-0.0067544239573180676,-0.32011082768440247,0.00008726646046852693
1685474504697721000,15.93172119140625,-0.004921828396618366,-0.3193603456020355,0.00038397242315113544
1685474504717722600,15.95172265625,-0.004607669077813625,-0.28012534976005554,0.00019198621157556772
1685474504737722600,15.97172265625,-0.005166174378246069,-0.25528931617736816,0.0005759586347267032
1685474504757722600,15.99172265625,-0.004607669077813625,-0.2588846981525421,-0.0012217304902151227
1685474504777722600,16.01172265625,-0.005358160939067602,-0.24928537011146545,-0.00006981316983001307
1685474504797722600,16.03172265625,-0.006126105785369873,-0.25446900725364685,0.00010471975838299841
1685474504817721000,16.05172119140625,-0.005201081279665232,-0.24874432384967804,0.00019198621157556772
1685474504837721000,16.07172119140625,-0.003804817795753479,-0.224065363407135,-0.001343903481028974
1685474504857721000,16.09172119140625,-0.006143558770418167,-0.22703242301940918,-0.0012740903766825795
1685474504877721000,16.11172119140625,-0.005986479111015797,-0.21902136504650116,-0.0006806784076616168
1685474504897721000,16.13172119140625,-0.0045553091913461685,-0.18502235412597656,0.00013962633966002613
1685474504917721000,16.15172119140625,-0.0036651913542300463,-0.17549285292625427,-0.0008552113431505859
1685474504937721000,16.17172119140625,-0.0029845130629837513,-0.165911003947258,-0.0005235987482592463
1685474504957721000,16.19172119140625,-0.002007128670811653,-0.13283701241016388,0.00013962633966002613
1685474504977722600,16.21172265625,-0.0007504915702156723,-0.09210102260112762,0.00031415926059708
1685474504997721000,16.23172119140625,-0.00024434609804302454,-0.05258677154779434,-0.00012217304902151227
1685474505017721000,16.25172119140625,0.000052359879191499203,-0.039618972688913345,-0.00017453292093705386
1685474505037721000,16.27172119140625,0.0006806784076616168,0.00024434609804302454,-0.001483529806137085
1685474505057721000,16.29172119140625,0.0007330382941290736,0.032759830355644226,-0.00031415926059708
1685474505077721000,16.31172119140625,0.00012217304902151227,0.03392919898033142,-0.00027925267932005227
1685474505097721000,16.33172119140625,0.00029670598451048136,0.011501720175147057,-0.0011693706037476659
1685474505117721000,16.35172119140625,-0.00031415926059708,0.0015882495790719986,0.00006981316983001307
1685474505137721000,16.37172119140625,0.00047123889089562,0.009180432185530663,-0.00045378561480902135
1685474505157721000,16.39172119140625,-0.00010471975838299841,0.016702800989151,0.0009599310578778386
1685474505177721000,16.41172119140625,0.00062831852119416,0.021764256060123444,-0.00024434609804302454
1685474505197722600,16.43172265625,0.0009250245057046413,0.01958259381353855,-0.0005235987482592463
1685474505217721000,16.45172119140625,0.00047123889089562,0.0029321531765162945,-0.00043633230961859226
1685474505237721000,16.47172119140625,0.00003490658491500653,-0.008761553093791008,0.00006981316983001307
1685474505257721000,16.49172119140625,-0.001343903481028974,-0.011850785464048386,-0.001029744278639555
1685474505277721000,16.51172119140625,-0.0006981316837482154,0.002548180753365159,0.00017453292093705386
1685474505297721000,16.53172119140625,-0.00024434609804302454,0.0023387412074953318,-0.0008726646192371845
1685474505317721000,16.55172119140625,0.00024434609804302454,-0.0006108652451075613,0.00038397242315113544
1685474505337721000,16.57172119140625,-0.0003316125657875091,0.0005759586347267032,-0.00022689280740451068
1685474505357721000,16.59172119140625,-0.0002617993741296232,-0.0013788101496174932,-0.0005585053586401045
1685474505377721000,16.61172119140625,0.00047123889089562,0.012548916973173618,-0.00024434609804302454
1685474505397721000,16.63172119140625,0.0005410520825535059,0.037716563791036606,-0.000715585018042475
1685474505417721000,16.65172119140625,0.0006457717972807586,0.048973940312862396,-0.0009773843921720982
1685474505437721000,16.67172119140625,0.00125663704238832,0.0570199079811573,-0.0011868239380419254
1685474505457721000,16.69172119140625,0.0009075712296180427,0.04284783452749252,-0.0005585053586401045
1685474505477721000,16.71172119140625,0.0008901178953237832,0.048258353024721146,-0.00006981316983001307
1685474505497721000,16.73172119140625,0.0010646508308127522,0.04858996719121933,0.0005585053586401045
1685474505517721000,16.75172119140625,0.0005585053586401045,0.041172318160533905,-0.0010471974965184927
1685474505537721000,16.77172119140625,0.0011693706037476659,0.03956661373376846,-0.0006632251315750182
1685474505557721000,16.79172119140625,0.0013962633674964309,0.03989822790026665,-0.0011519172694534063
1685474505577721000,16.81172119140625,0.000017453292457503267,0.030927233397960663,-0.0018675023457035422
1685474505597721000,16.83172119140625,0.0003490658418741077,0.035901423543691635,-0.0011868239380419254
1685474505617721000,16.85172119140625,0.0008203047327697277,0.055833082646131516,-0.0012217304902151227
1685474505637721000,16.87172119140625,0.002286381321027875,0.0760439932346344,-0.0016057029133662581
1685474505657721000,16.89172119140625,0.0019024088978767395,0.09747663885354996,-0.00015707963029854
1685474505677721000,16.91172119140625,0.0017802357906475663,0.08609709143638611,-0.00029670598451048136
1685474505697721000,16.93172119140625,0.001117010717280209,0.0912981703877449,-0.0008901178953237832
1685474505717721000,16.95172119140625,0.0011519172694534063,0.09529497474431992,-0.001029744278639555
1685474505737721000,16.97172119140625,0.0009948377264663577,0.10065313428640366,-0.00012217304902151227
1685474505757721000,16.99172119140625,0.00188495556358248,0.13730505108833313,-0.00041887903353199363
1685474505777721000,17.01172119140625,0.00296705961227417,0.17523105442523956,-0.0012391837080940604
1685474505797721000,17.03172119140625,0.0039618974551558495,0.20235347747802734,-0.0008028514566831291
1685474505817721000,17.05172119140625,0.0027052604127675295,0.19280652701854706,0.00029670598451048136
1685474505837721000,17.07172119140625,0.0032463124953210354,0.18135716021060944,-0.0018325956771150231
1685474505857721000,17.09172119140625,0.0021642083302140236,0.18992672860622406,-0.0007853981805965304
1685474505877721000,17.11172119140625,0.0037000980228185654,0.20209167897701263,-0.0006981316837482154
1685474505897721000,17.13172119140625,0.0037873645778745413,0.22799235582351685,-0.0005061454721726477
1685474505917721000,17.15172119140625,0.005096361506730318,0.24069835245609283,-0.0010122909443452954
1685474505937721000,17.17172119140625,0.004398229531943798,0.2670877277851105,-0.0008901178953237832
1685474505957721000,17.19172119140625,0.005096361506730318,0.2690075933933258,-0.00038397242315113544
1685474505977721000,17.21172119140625,0.005305801052600145,0.27633798122406006,0
1685474505997721000,17.23172119140625,0.005393067374825478,0.26832690834999084,-0.00019198621157556772
1685474506017721000,17.25172119140625,0.005148721393197775,0.24987879395484924,-0.0003316125657875091
1685474506037721000,17.27172119140625,0.004258603323251009,0.23862141370773315,-0.0005061454721726477
1685474506057721000,17.29172119140625,0.005201081279665232,0.24373522400856018,-0.0003316125657875091
1685474506077721000,17.31172119140625,0.03419100120663643,0.22479841113090515,0.010349802672863007
1685474506097721000,17.33172119140625,0.020123645663261414,0.24321162700653076,0.003176499158143997
1685474506117721000,17.35172119140625,0.015550883486866951,0.30173251032829285,0.0021118484437465668
1685474506137721000,17.37172119140625,0.006143558770418167,0.3520154654979706,-0.0018151424592360854
1685474506157721000,17.39172119140625,0.006702064536511898,0.349659264087677,-0.0005759586347267032
1685474506177721000,17.41172119140625,0.005742133129388094,0.3225717544555664,0.00006981316983001307
1685474506197722600,17.43172265625,0.006370451766997576,0.29712486267089844,0.00029670598451048136
1685474506217721000,17.45172119140625,0.006056292448192835,0.2823418974876404,-0.0012740903766825795
1685474506237721000,17.47172119140625,0.00518362782895565,0.28099802136421204,-0.0003490658418741077
1685474506257725700,17.4917255859375,0.0052534411661326885,0.2842443287372589,-0.0016231562476605177
1685474506277721000,17.51172119140625,0.004206243436783552,0.279933363199234,-0.000052359879191499203
1685474506297721000,17.53172119140625,0.0047996556386351585,0.27141615748405457,-0.0012391837080940604
1685474506317721000,17.55172119140625,0.0046774824149906635,0.26483625173568726,-0.00019198621157556772
1685474506337721000,17.57172119140625,0.003577925032004714,0.2430545538663864,-0.00041887903353199363
1685474506357721000,17.59172119140625,0.0038397242315113544,0.21823596954345703,-0.0007330382941290736
1685474506377780500,17.611780517578126,0.002600540639832616,0.21125465631484985,-0.0013788101496174932
1685474506397721000,17.63172119140625,0.0035953782498836517,0.22516492009162903,-0.0020943949930369854
1685474506417721000,17.65172119140625,0.0013089969288557768,0.24361304938793182,-0.00125663704238832
1685474506437721000,17.67172119140625,0.0026529005263000727,0.2353576421737671,-0.002146754879504442
1685474506457721000,17.69172119140625,0.0031590459402650595,0.24216443300247192,-0.002199114765971899
1685474506477721000,17.71172119140625,0.002809980185702443,0.25076889991760254,-0.0017802357906475663
1685474506497721000,17.73172119140625,0.0024958208668977022,0.2649758756160736,-0.0016231562476605177
1685474506517721000,17.75172119140625,0.0037873645778745413,0.30695104598999023,-0.0018151424592360854
1685474506537721000,17.77172119140625,0.0037000980228185654,0.3588047921657562,-0.0037873645778745413
1685474506557721000,17.79172119140625,0.006126105785369873,0.4000294506549835,-0.0013264502631500363
1685474506577721000,17.81172119140625,0.006841690745204687,0.40824997425079346,-0.0016929693520069122
1685474506597721000,17.83172119140625,0.00708603672683239,0.4164181053638458,-0.0019024088978767395
1685474506617721000,17.85172119140625,0.007400196045637131,0.4512897729873657,-0.001745329238474369
1685474506637721000,17.87172119140625,0.008953538723289967,0.48691195249557495,-0.0008028514566831291
1685474506657721000,17.89172119140625,0.011170106939971447,0.49843111634254456,-0.0005759586347267032
1685474506677721000,17.91172119140625,0.011571533046662807,0.5124286413192749,-0.00022689280740451068
1685474506697721000,17.93172119140625,0.010716321878135204,0.5024977326393127,-0.00010471975838299841
1685474506717721000,17.95172119140625,0.00855211354792118,0.48116981983184814,-0.0009599310578778386
1685474506737721000,17.97172119140625,0.007627088576555252,0.3995233178138733,0.0002617993741296232
1685474506757721000,17.99172119140625,0.004747295752167702,0.3372150659561157,-0.0006108652451075613
1685474506777721000,18.01172119140625,0.0036128314677625895,0.29857346415519714,0.0008203047327697277
1685474506797721000,18.03172119140625,0.0017278759041801095,0.251676470041275,0.0004886921960860491
1685474506817721000,18.05172119140625,0.002373647876083851,0.21533872187137604,-0.00029670598451048136
1685474506837721000,18.07172119140625,0.002234021434560418,0.1950230896472931,-0.0006457717972807586
1685474506857721000,18.09172119140625,0.004921828396618366,0.19488346576690674,-0.0022689281031489372
1685474506877721000,18.11172119140625,0.003228859044611454,0.22621212899684906,-0.0008901178953237832
1685474506897721000,18.13172119140625,0.003804817795753479,0.2422167956829071,-0.0009599310578778386
1685474506917721000,18.15172119140625,0.005811946466565132,0.2797588109970093,-0.002024581888690591
1685474506937721000,18.17172119140625,0.005166174378246069,0.32796481251716614,-0.0008028514566831291
1685474506957721000,18.19172119140625,0.005410520825535059,0.36159729957580566,-0.000052359879191499203
1685474506977721000,18.21172119140625,0.006492624990642071,0.37857937812805176,0.00041887903353199363
1685474506997721000,18.23172119140625,0.007557275705039501,0.40114647150039673,-0.0007853981805965304
1685474507017721000,18.25172119140625,0.007120943162590265,0.4323529601097107,-0.00031415926059708
1685474507037721000,18.27172119140625,0.009023352526128292,0.48338639736175537,-0.0009250245057046413
1685474507057721000,18.29172119140625,0.010227628983557224,0.5198637843132019,0.00045378561480902135
1685474507077721000,18.31172119140625,0.010384708642959595,0.5528504848480225,0.000715585018042475
1685474507097721000,18.33172119140625,0.010681414976716042,0.5527457594871521,0.00003490658491500653
1685474507117721000,18.35172119140625,0.00905825849622488,0.47226864099502563,0.005166174378246069
1685474507137721000,18.37172119140625,0.0028623400721699,0.19650661945343018,0.005567600484937429
1685474507157721000,18.39172119140625,0.00019198621157556772,0.0041015236638486385,0.00022689280740451068
1685474507177721000,18.41172119140625,0.0003490658418741077,0.005358160939067602,-0.0009075712296180427
1685474507197722600,18.43172265625,0.0008028514566831291,0.06370452046394348,0.0008901178953237832
1685474507217721000,18.45172119140625,0.0008203047327697277,0.08077383786439896,0.003351032268255949
1685474507237721000,18.47172119140625,0.0005235987482592463,0.04986405745148659,0.002775073517113924
1685474507257721000,18.49172119140625,0.0009250245057046413,0.03691371530294418,0.0005410520825535059
1685474507277721000,18.51172119140625,-0.000052359879191499203,0.02494075521826744,-0.000052359879191499203
1685474507297721000,18.53172119140625,0.00006981316983001307,0.017435839399695396,-0.0020420351065695286
1685474507317721000,18.55172119140625,0.00015707963029854,0.016528267413377762,-0.0007853981805965304
1685474507337721000,18.57172119140625,-0.0007679448463022709,0.015830136835575104,-0.0012042771559208632
1685474507357721000,18.59172119140625,-0.00043633230961859226,0.015568336471915245,-0.0012740903766825795
1685474507377721000,18.61172119140625,-0.0009948377264663577,0.009285151958465576,-0.00188495556358248
1685474507397721000,18.63172119140625,-0.0008726646192371845,0.006422811653465033,-0.0012740903766825795
1685474507417721000,18.65172119140625,0,0.004345869645476341,-0.0012042771559208632
1685474507437721000,18.67172119140625,0.0003490658418741077,0.005811946466565132,-0.00188495556358248
1685474507457721000,18.69172119140625,0.00045378561480902135,0.004817108623683453,-0.001518436474725604
1685474507477721000,18.71172119140625,0.00047123889089562,0.0033684854861348867,-0.0019198621157556772
1685474507497721000,18.73172119140625,-0.00015707963029854,0.0023561944253742695,-0.0003665191470645368
1685474507517721000,18.75172119140625,0.00045378561480902135,0.002373647876083851,0.0008552113431505859
1685474507537721000,18.77172119140625,0.00047123889089562,0.0010821041651070118,-0.00010471975838299841
1685474507557721000,18.79172119140625,0.00022689280740451068,0.0016057029133662581,-0.00043633230961859226
1685474507577721000,18.81172119140625,0.00045378561480902135,0.0011519172694534063,-0.00041887903353199363
1685474507597721000,18.83172119140625,0.0003490658418741077,0.0012915435945615172,0.00015707963029854
1685474507617721000,18.85172119140625,0.00003490658491500653,0.0003490658418741077,0.0007679448463022709
1685474507637721000,18.87172119140625,0,0.00045378561480902135,-0.0011693706037476659
1685474507657721000,18.89172119140625,-0.0003665191470645368,0.0008552113431505859,-0.00040142572834156454
1685474507677721000,18.91172119140625,-0.00012217304902151227,0.0005410520825535059,-0.00029670598451048136
1685474507697721000,18.93172119140625,0.00006981316983001307,0.00013962633966002613,-0.00010471975838299841
1685474507717721000,18.95172119140625,0.0006806784076616168,0.00031415926059708,-0.0007330382941290736
1685474507737721000,18.97172119140625,-0.00008726646046852693,-0.00024434609804302454,-0.000715585018042475
1685474507757721000,18.99172119140625,0.00022689280740451068,-0.00047123889089562,0.00003490658491500653
1685474507777721000,19.01172119140625,0.00013962633966002613,0.00022689280740451068,-0.00008726646046852693
1685474507797721000,19.03172119140625,0.00012217304902151227,0.0002617993741296232,-0.0007853981805965304
1685474507817721000,19.05172119140625,-0.00012217304902151227,-0.0003490658418741077,-0.00188495556358248
1685474507837721000,19.07172119140625,0.00019198621157556772,0.0008726646192371845,-0.0010471974965184927
1685474507857721000,19.09172119140625,0.00012217304902151227,-0.000052359879191499203,-0.0006108652451075613
1685474507877721000,19.11172119140625,0.00047123889089562,0.0009075712296180427,0.0010821041651070118
1685474507897721000,19.13172119140625,0.00015707963029854,0.0003490658418741077,-0.0006457717972807586
1685474507917721000,19.15172119140625,-0.00020943951676599681,-0.00003490658491500653,-0.0006981316837482154
1685474507937721000,19.17172119140625,0.000052359879191499203,0.0005934119690209627,0.000017453292457503267
1685474507957721000,19.19172119140625,0.00022689280740451068,0.0010995573829859495,-0.000715585018042475
1685474507977721000,19.21172119140625,0.00027925267932005227,0.00040142572834156454,-0.0015707963611930609
1685474507997721000,19.23172119140625,-0.00013962633966002613,0.00031415926059708,-0.00019198621157556772
1685474508017721000,19.25172119140625,0.00047123889089562,-0.000017453292457503267,-0.0003665191470645368
1685474508037721000,19.27172119140625,0.00038397242315113544,0.00019198621157556772,-0.0006806784076616168
1685474508057721000,19.29172119140625,0.0005235987482592463,0.000017453292457503267,-0.00017453292093705386
1685474508077721000,19.31172119140625,0.00015707963029854,-0.00038397242315113544,-0.0007853981805965304
1685474508097722600,19.33172265625,0.00041887903353199363,-0.00029670598451048136,-0.0006108652451075613
1685474508117722600,19.35172265625,0.00006981316983001307,-0.00022689280740451068,-0.0012740903766825795
1685474508137722600,19.37172265625,0.00045378561480902135,0.0006806784076616168,0.0008726646192371845
1685474508157721000,19.39172119140625,0.00020943951676599681,0.0015009831404313445,-0.00031415926059708
1685474508177722600,19.41172265625,0.00017453292093705386,-0.00031415926059708,-0.0007330382941290736
1685474508197722600,19.43172265625,-0.00043633230961859226,0.00003490658491500653,-0.0005061454721726477
1685474508217721000,19.45172119140625,-0.000017453292457503267,-0.00006981316983001307,-0.0005759586347267032
1685474508237721000,19.47172119140625,-0.00022689280740451068,0.0003665191470645368,-0.000052359879191499203
1685474508257721000,19.49172119140625,-0.0002617993741296232,0.0015358896926045418,0.0008377580670639873
1685474508277721000,19.51172119140625,-0.00003490658491500653,-0.0005585053586401045,-0.00022689280740451068
1685474508297721000,19.53172119140625,0.00015707963029854,0.0019547687843441963,0.00010471975838299841
1685474508317721000,19.55172119140625,0.0007330382941290736,0.0005410520825535059,0.0006457717972807586
1685474508337721000,19.57172119140625,-0.00017453292093705386,0.00043633230961859226,-0.0005235987482592463
1685474508357721000,19.59172119140625,-0.00094247778179124,0.00029670598451048136,0.00040142572834156454
1685474508377721000,19.61172119140625,0.00012217304902151227,0.00040142572834156454,0
1685474508397721000,19.63172119140625,0.00029670598451048136,-0.00006981316983001307,-0.0002617993741296232
1685474508417721000,19.65172119140625,-0.0003316125657875091,0.0002617993741296232,-0.00125663704238832
1685474508437721000,19.67172119140625,0.00047123889089562,0.0010821041651070118,0
1685474508457721000,19.69172119140625,-0.00013962633966002613,0.003490658476948738,0.0006981316837482154
1685474508477721000,19.71172119140625,0,0.0012042771559208632,-0.0005235987482592463
1685474508497721000,19.73172119140625,0.000017453292457503267,0.0016755161341279745,0.00019198621157556772
1685474508517721000,19.75172119140625,0.00022689280740451068,0.001518436474725604,0.0014137167017906904
1685474508537721000,19.77172119140625,-0.00013962633966002613,0.0024260077625513077,0.0009075712296180427
1685474508557721000,19.79172119140625,0.0017976891249418259,0.009913469664752483,-0.00047123889089562
1685474508577721000,19.81172119140625,0.0008203047327697277,0.008255407214164734,-0.00022689280740451068
1685474508597721000,19.83172119140625,0.00045378561480902135,0.004660028964281082,-0.0005235987482592463
1685474508617721000,19.85172119140625,0.000052359879191499203,0.0031590459402650595,0.000052359879191499203
1685474508637721000,19.87172119140625,0.0006457717972807586,0.0030717793852090836,-0.00043633230961859226
1685474508657721000,19.89172119140625,-0.00010471975838299841,0.002775073517113924,-0.00019198621157556772
1685474508677721000,19.91172119140625,-0.0005061454721726477,0.0009773843921720982,-0.0013613568153232336
1685474508697721000,19.93172119140625,-0.00043633230961859226,0.002024581888690591,0.00013962633966002613
1685474508717721000,19.95172119140625,-0.0003316125657875091,0.00094247778179124,-0.0003316125657875091
1685474508737721000,19.97172119140625,0.0002617993741296232,0.000715585018042475,0.0003316125657875091
1685474508757721000,19.99172119140625,0.0003316125657875091,0.0022689281031489372,-0.00017453292093705386
1685474508777721000,20.01172119140625,-0.00038397242315113544,0.0006457717972807586,-0.0007679448463022709
1685474508797721000,20.03172119140625,0.0009948377264663577,0.00062831852119416,-0.00031415926059708
1685474508817721000,20.05172119140625,0.00003490658491500653,-0.00043633230961859226,-0.0007504915702156723
1685474508837721000,20.07172119140625,-0.001029744278639555,0.0008203047327697277,-0.00012217304902151227
1685474508857721000,20.09172119140625,0.0008552113431505859,-0.000715585018042475,-0.0005061454721726477
1685474508877721000,20.11172119140625,-0.0002617993741296232,-0.000017453292457503267,-0.0006806784076616168
1685474508897721000,20.13172119140625,0.00019198621157556772,0,-0.001518436474725604
1685474508917721000,20.15172119140625,0.00010471975838299841,-0.00125663704238832,-0.0005759586347267032
1685474508937721000,20.17172119140625,0.00045378561480902135,0.00003490658491500653,0.00019198621157556772
1685474508957721000,20.19172119140625,-0.00038397242315113544,-0.00029670598451048136,-0.0010122909443452954
1685474508977721000,20.21172119140625,0.00043633230961859226,-0.00017453292093705386,-0.0002617993741296232
1685474508997722600,20.23172265625,-0.00062831852119416,-0.00043633230961859226,-0.00040142572834156454
1685474509017721000,20.25172119140625,-0.0009075712296180427,0.00041887903353199363,-0.0008901178953237832
1685474509037721000,20.27172119140625,0.00013962633966002613,0.00047123889089562,-0.0005585053586401045
1685474509057721000,20.29172119140625,0.00047123889089562,-0.00013962633966002613,0.00015707963029854
1685474509077721000,20.31172119140625,-0.0010646508308127522,0.00010471975838299841,0.0011868239380419254
1685474509097721000,20.33172119140625,0.0009075712296180427,-0.0005061454721726477,-0.0008552113431505859
1685474509117721000,20.35172119140625,0.0003316125657875091,-0.0003665191470645368,-0.00047123889089562
1685474509137721000,20.37172119140625,0.00017453292093705386,0.0003665191470645368,-0.0006981316837482154
1685474509157722600,20.39172265625,-0.00019198621157556772,0.0009075712296180427,0
1685474509177722600,20.41172265625,-0.0005410520825535059,0.00015707963029854,-0.0007853981805965304
1685474509197721000,20.43172119140625,-0.00012217304902151227,-0.0003316125657875091,-0.00038397242315113544
1685474509217721000,20.45172119140625,-0.00012217304902151227,-0.0013962633674964309,-0.0007504915702156723
1685474509237721000,20.47172119140625,0.00022689280740451068,-0.0005585053586401045,-0.0007504915702156723
1685474509257721000,20.49172119140625,-0.00006981316983001307,0.00029670598451048136,0.00027925267932005227
1685474509277721000,20.51172119140625,0.00013962633966002613,0.00008726646046852693,-0.00041887903353199363
1685474509297721000,20.53172119140625,0.0004886921960860491,-0.000715585018042475,0.00015707963029854
1685474509317721000,20.55172119140625,0.00008726646046852693,-0.0005235987482592463,0.0003316125657875091
1685474509337721000,20.57172119140625,0,-0.0009075712296180427,-0.0006806784076616168
1685474509357721000,20.59172119140625,0.00041887903353199363,-0.0011868239380419254,0.00015707963029854
1685474509377721000,20.61172119140625,0.00015707963029854,-0.00020943951676599681,-0.00038397242315113544
1685474509397721000,20.63172119140625,0.00062831852119416,-0.00045378561480902135,-0.0009948377264663577
1685474509417721000,20.65172119140625,-0.00031415926059708,-0.0008203047327697277,-0.0015358896926045418
1685474509437721000,20.67172119140625,-0.00024434609804302454,0.00029670598451048136,-0.00012217304902151227
1685474509457721000,20.69172119140625,0.00029670598451048136,0.00020943951676599681,-0.001029744278639555
1685474509477721000,20.71172119140625,0.000052359879191499203,0.0008028514566831291,-0.0006981316837482154
1685474509497721000,20.73172119140625,0,0.0017627825727686286,0.0006632251315750182
1685474509517721000,20.75172119140625,-0.0002617993741296232,0.0010471974965184927,-0.0010646508308127522
1685474509537721000,20.77172119140625,0.00029670598451048136,-0.0035604715812951326,-0.00188495556358248
1685474509557721000,20.79172119140625,-0.00010471975838299841,-0.008377579972147942,0.0013264502631500363
1685474509577721000,20.81172119140625,-0.0010995573829859495,-0.010821041651070118,0.0013788101496174932
1685474509597721000,20.83172119140625,-0.00143117003608495,0.01886700838804245,-0.011065387167036533
1685474509617721000,20.85172119140625,0.00022689280740451068,-0.0037873645778745413,-0.0028623400721699
1685474509637721000,20.87172119140625,0.00013962633966002613,-0.004660028964281082,-0.0015707963611930609
1685474509657721000,20.89172119140625,0.0004886921960860491,-0.0020943949930369854,-0.0011344640515744686
1685474509677721000,20.91172119140625,-0.00017453292093705386,-0.0008203047327697277,-0.0005061454721726477
1685474509697721000,20.93172119140625,0.00008726646046852693,-0.0005235987482592463,-0.0015882495790719986
1685474509717722600,20.95172265625,0.00027925267932005227,-0.000715585018042475,-0.000052359879191499203
1685474509737721000,20.97172119140625,-0.00008726646046852693,-0.0005934119690209627,-0.00019198621157556772
1685474509757721000,20.99172119140625,0,0.00017453292093705386,-0.0006806784076616168
1685474509777721000,21.01172119140625,0.00045378561480902135,0,-0.0006806784076616168
1685474509797721000,21.03172119140625,-0.00013962633966002613,0.0002617993741296232,-0.00003490658491500653
1685474509817721000,21.05172119140625,0.00045378561480902135,-0.0003665191470645368,0.0009075712296180427
1685474509837721000,21.07172119140625,-0.000017453292457503267,-0.00017453292093705386,-0.00008726646046852693
1685474509857721000,21.09172119140625,0.0003665191470645368,-0.0002617993741296232,-0.0019198621157556772
1685474509877721000,21.11172119140625,0.00012217304902151227,-0.000052359879191499203,-0.00003490658491500653
1685474509897721000,21.13172119140625,0.00017453292093705386,-0.00017453292093705386,0
1685474509917721000,21.15172119140625,0.0005235987482592463,-0.0005759586347267032,-0.00027925267932005227
1685474509937721000,21.17172119140625,-0.00003490658491500653,-0.0002617993741296232,-0.0013264502631500363
1685474509957721000,21.19172119140625,0.00029670598451048136,-0.00006981316983001307,-0.00012217304902151227
1685474509977722600,21.21172265625,-0.00031415926059708,-0.0006108652451075613,-0.0009250245057046413
1685474509997721000,21.23172119140625,0.0004886921960860491,-0.00013962633966002613,-0.0005410520825535059
1685474510017721000,21.25172119140625,0.00006981316983001307,-0.000017453292457503267,-0.00031415926059708
1685474510037721000,21.27172119140625,0,-0.00040142572834156454,-0.0005585053586401045
1685474510057721000,21.29172119140625,0.0003316125657875091,-0.00038397242315113544,-0.00020943951676599681
1685474510077722600,21.31172265625,-0.00022689280740451068,-0.00022689280740451068,0.0005934119690209627
1685474510097721000,21.33172119140625,0.00019198621157556772,-0.0003316125657875091,-0.0012042771559208632
1685474510117721000,21.35172119140625,0.00017453292093705386,-0.0006806784076616168,-0.0014486232539638877
1685474510137721000,21.37172119140625,0.0006806784076616168,-0.00047123889089562,-0.00012217304902151227
1685474510157721000,21.39172119140625,0.00003490658491500653,-0.0003665191470645368,-0.0014486232539638877
1685474510177721000,21.41172119140625,0.00022689280740451068,-0.00019198621157556772,-0.0017976891249418259
1685474510197721000,21.43172119140625,-0.0002617993741296232,-0.0003665191470645368,-0.000715585018042475
1685474510217721000,21.45172119140625,-0.0008377580670639873,-0.0005235987482592463,-0.00027925267932005227
1685474510237721000,21.47172119140625,0.00006981316983001307,-0.00047123889089562,-0.00047123889089562
1685474510257721000,21.49172119140625,0.0005061454721726477,-0.00043633230961859226,-0.0011868239380419254
1685474510277721000,21.51172119140625,-0.0006457717972807586,-0.00038397242315113544,-0.00019198621157556772
1685474510297721000,21.53172119140625,0.00041887903353199363,-0.0008028514566831291,-0.00040142572834156454
1685474510317722600,21.55172265625,0.00031415926059708,0.019984019920229912,0.017680184915661812
