time,seconds_elapsed,z,y,x
1685474488816871400,0.050871337890625,9.850866317749023,0.007699752692133188,-0.016261417418718338
1685474488836871400,0.070871337890625,9.851929664611816,0.002863465342670679,0.0008331821882165968
1685474488856871400,0.090871337890625,9.837420463562012,-0.00938527099788189,-0.01743936538696289
1685474488876870000,0.110869873046875,9.837496757507324,0.0023463177494704723,0.003955221269279718
1685474488896870000,0.130869873046875,9.843673706054688,0.0008810661965981126,-0.008829816244542599
1685474488916870000,0.150869873046875,9.834547996520996,0.0005267243832349777,0.010180145502090454
1685474488936870000,0.170869873046875,9.842717170715332,0.007240065839141607,-0.00027772740577347577
1685474488956870000,0.190869873046875,9.822624206542969,-0.014374786987900734,0.001934514963068068
1685474488976868400,0.210868408203125,9.84202766418457,-0.008264783769845963,0.0006607996765524149
1685474488996868400,0.230868408203125,9.83864688873291,-0.004357446916401386,0.010907982476055622
1685474489016870000,0.250869873046875,9.835456848144531,-0.012919112108647823,0.003706224262714386
1685474489036870000,0.270869873046875,9.829471588134766,-0.004501099232584238,0.0007852981798350811
1685474489056870000,0.290869873046875,9.818880081176758,-0.006502651609480381,0.004577713552862406
1685474489076870000,0.310869873046875,9.822364807128906,-0.006062118336558342,-0.0015418659895658493
1685474489096868400,0.330868408203125,9.830113410949707,0.0008619126165285707,-0.00319865345954895
1685474489116868400,0.350868408203125,9.82474136352539,-0.00562158552929759,0.0027198130264878273
1685474489136870000,0.370869873046875,9.82997989654541,0.010074800811707973,-0.00883939303457737
1685474489156868400,0.390868408203125,9.832259178161621,0.001455674646422267,0.0029975404031574726
1685474489176870000,0.410869873046875,9.822815895080566,0.0012545617064461112,-0.006991068832576275
1685474489196868400,0.430868408203125,9.829232215881348,-0.01267969235777855,-0.0014844050165265799
1685474489216868400,0.450868408203125,9.814665794372559,-0.009346963837742805,-0.0120859295129776
1685474489236870000,0.470869873046875,9.798519134521484,-0.0025953147560358047,0.00804451759904623
1685474489256870000,0.490869873046875,9.825247764587402,0.0039264908991754055,0.0014077905798330903
1685474489276868400,0.510868408203125,9.808756828308105,0.007230489049106836,0.0071634515188634396
1685474489296870000,0.530869873046875,9.822614669799805,0.0050948611460626125,0.0035338415764272213
1685474489316870000,0.550869873046875,9.817395210266113,-0.007891288958489895,0.00833182130008936
1685474489336868400,0.570868408203125,9.837821960449219,0.010505757294595242,-0.0052002063021063805
1685474489356868400,0.590868408203125,9.81917667388916,0.009059659205377102,-0.007460332475602627
1685474489376870000,0.610869873046875,9.803365707397461,0.009203311055898666,0.012411542236804962
1685474489396870000,0.630869873046875,9.819798469543457,-0.013972560875117779,0.0038115691859275103
1685474489416870000,0.650869873046875,9.816859245300293,0.0056503163650631905,0.006856993772089481
1685474489436870000,0.670869873046875,9.820402145385742,-0.004817133769392967,-0.007402871735394001
1685474489456870000,0.690869873046875,9.812118530273438,0.005449202843010426,-0.0009481038432568312
1685474489476868400,0.710868408203125,9.811161041259766,-0.004836287349462509,0.009500192478299141
1685474489496870000,0.730869873046875,9.829883575439453,-0.010409989394247532,0.0030741551890969276
1685474489516870000,0.750869873046875,9.811113357543945,-0.0010342950699850917,-0.0031890766695141792
1685474489536870000,0.770869873046875,9.813947677612305,-0.0013790600933134556,-0.002384624909609556
1685474489556868400,0.790868408203125,9.809906005859375,0.00494163203984499,-0.008963891305029392
1685474489576870000,0.810869873046875,9.824721336364746,0.006339846178889275,-0.003888183506205678
1685474489596870000,0.830869873046875,9.805376052856445,-0.009433154948055744,-0.007776367012411356
1685474489616870000,0.850869873046875,9.806410789489746,0.005420472472906113,-0.00008619125583209097
1685474489636868400,0.870868408203125,9.829625129699707,-0.0006895300466567278,0.004146757069975138
1685474489656870000,0.890869873046875,9.819828033447266,0.01798524335026741,0.00838928297162056
1685474489676868400,0.910868408203125,9.812348365783691,-0.000641646038275212,-0.0009959879098460078
1685474489696870000,0.930869873046875,9.810270309448242,0.0006703764665871859,-0.005075707565993071
1685474489716870000,0.950869873046875,9.80838394165039,0.0034572272561490536,0.0033327287528663874
1685474489736870000,0.970869873046875,9.829471588134766,-0.008552088402211666,-0.012267890386283398
1685474489756868400,0.990868408203125,9.819023132324219,-0.012057199142873287,-0.0009097966831177473
1685474489776868400,1.010868408203125,9.797983169555664,0.0013407529331743717,-0.010706869885325432
1685474489796870000,1.030869873046875,9.816160202026367,0.008456320501863956,-0.01533246785402298
1685474489816870000,1.050869873046875,9.817596435546875,-0.003064578166231513,0.012440272606909275
1685474489836870000,1.070869873046875,9.81046199798584,-0.0002585737674962729,-0.005851428955793381
1685474489856870000,1.090869873046875,9.817682266235352,0.00033518823329359293,-0.00019153613538946956
1685474489876870000,1.110869873046875,9.80575942993164,0.007019799202680588,-0.0007278373232111335
1685474489896870000,1.130869873046875,9.80789566040039,0.003964798059314489,-0.009481038898229599
1685474489916868400,1.150868408203125,9.819138526916504,-0.010333375073969364,0.009097966365516186
1685474489936870000,1.170869873046875,9.835044860839844,0.005372588522732258,-0.008350975811481476
1685474489956870000,1.190869873046875,9.817366600036621,0.006703765131533146,-0.0035051112063229084
1685474489976868400,1.210868408203125,9.813755989074707,-0.0006033388199284673,-0.012852074578404427
1685474489996870000,1.230869873046875,9.810145378112793,-0.0012162544298917055,-0.009155427105724812
1685474490016870000,1.250869873046875,9.814886093139648,0.002212242456153035,-0.0013790600933134556
1685474490036870000,1.270869873046875,9.811907768249512,0.004089296329766512,-0.0009864111198112369
1685474490056870000,1.290869873046875,9.806612014770508,0.0013790600933134556,0.007441178895533085
1685474490076870000,1.310869873046875,9.817347526550293,-0.0036104561295360327,-0.0019728222396224737
1685474490096870000,1.330869873046875,9.8128080368042,0.008188169449567795,0.006962338462471962
1685474490116870000,1.350869873046875,9.807971954345703,-0.01668279804289341,0.005027823615819216
1685474490136870000,1.370869873046875,9.80887222290039,-0.005209783092141151,-0.00014365209790412337
1685474490156868400,1.390868408203125,9.808747291564941,0.0017142484430223703,-0.00958638358861208
1685474490176868400,1.410868408203125,9.82180118560791,-0.004414908122271299,0.0016567875863984227
1685474490196870000,1.430869873046875,9.797696113586426,0.005803545005619526,-0.0071921818889677525
1685474490216870000,1.450869873046875,9.815939903259277,-0.0015705963596701622,-0.0055641247890889645
1685474490236870000,1.470869873046875,9.800310134887695,-0.008781932294368744,-0.0010534487664699554
1685474490256868400,1.490868408203125,9.806621551513672,-0.001934514963068068,-0.0003447650233283639
1685474490276868400,1.510868408203125,9.805577278137207,0.005008670035749674,0.001618480309844017
1685474490296870000,1.530869873046875,9.796652793884277,0.0019632454495877028,0.0009097966831177473
1685474490316870000,1.550869873046875,9.813573837280273,-0.00374453142285347,0.002413355279713869
1685474490336870000,1.570869873046875,9.806899070739746,-0.005765237845480442,-0.01298614963889122
1685474490356871400,1.590871337890625,9.806258201599121,0.006062118336558342,0.0031028855592012405
1685474490376870000,1.610869873046875,9.807971954345703,-0.013934253714978695,-0.0010534487664699554
1685474490396868400,1.630868408203125,9.810452461242676,-0.00497036287561059,-0.01656787469983101
1685474490416868400,1.650868408203125,9.80286693572998,-0.001110909623093903,-0.0010342950699850917
1685474490436870000,1.670869873046875,9.806678771972656,0.008561665192246437,-0.02021663822233677
1685474490456868400,1.690868408203125,9.808507919311523,0.008858546614646912,0.003869029926136136
1685474490476868400,1.710868408203125,9.820535659790039,-0.007824251428246498,-0.01138682384043932
1685474490496868400,1.730868408203125,9.81285572052002,-0.005315127782523632,0.008877700194716454
1685474490516870000,1.750869873046875,9.81459903717041,0.0013599065132439137,0.00209732074290514
1685474490536870000,1.770869873046875,9.813286781311035,0.009950302541255951,-0.0054779332131147385
1685474490556870000,1.790869873046875,9.80299186706543,0.004472368862479925,-0.006426037289202213
1685474490576868400,1.810868408203125,9.813440322875977,0.006435614079236984,0.007412448525428772
1685474490596870000,1.830869873046875,9.805098533630371,-0.0039264908991754055,0.0046543278731405735
1685474490616870000,1.850869873046875,9.806238174438477,0.0007661445415578783,0.006981492042541504
1685474490636870000,1.870869873046875,9.797954559326172,-0.010869675315916538,-0.006789956241846085
1685474490656870000,1.890869873046875,9.802599906921387,0.004434061702340841,0.007326257415115833
1685474490676868400,1.910868408203125,9.813286781311035,0.007115567568689585,0.002940079662948847
1685474490696870000,1.930869873046875,9.807445526123047,0.005219359882175922,-0.003859453136101365
1685474490716870000,1.950869873046875,9.809886932373047,-0.014030021615326405,-0.0019632454495877028
1685474490736870000,1.970869873046875,9.812847137451172,0.005037400405853987,-0.005276820622384548
1685474490756870000,1.990869873046875,9.809101104736328,-0.010323798283934593,-0.0021452046930789948
1685474490776870000,2.010869873046875,9.820756912231445,0.0010247182799503207,-0.011022903956472874
1685474490796870000,2.030869873046875,9.814493179321289,0.004481945652514696,-0.002087743952870369
1685474490816870000,2.050869873046875,9.811793327331543,-0.006473921239376068,0.008312667720019817
1685474490836868400,2.070868408203125,9.811332702636719,-0.022543802857398987,-0.0072687966749072075
1685474490856870000,2.090869873046875,9.823716163635254,0.000967257481534034,-0.016903065145015717
1685474490876870000,2.110869873046875,9.815825462341309,0.010975020006299019,0.0075465235859155655
1685474490896870000,2.130869873046875,9.796805381774902,-0.006272808648645878,0.011741165071725845
1685474490916870000,2.150869873046875,9.81367015838623,0.0017334020230919123,-0.009404424577951431
1685474490936870000,2.170869873046875,9.811448097229004,-0.006081271916627884,0.006186617538332939
1685474490956870000,2.190869873046875,9.820709228515625,0.008121131919324398,0.010400412604212761
1685474490976868400,2.210868408203125,9.811630249023438,0.004797980189323425,-0.0028060043696314096
1685474490996870000,2.230869873046875,9.804879188537598,-0.006004657596349716,-0.006110002286732197
1685474491016870000,2.250869873046875,9.817069053649902,0.008925584144890308,-0.0063685765489935875
1685474491036868400,2.270868408203125,9.808987617492676,-0.013943830505013466,0.005353434942662716
1685474491056870000,2.290869873046875,9.815671920776367,-0.0026623522862792015,-0.005315127782523632
1685474491076870000,2.310869873046875,9.811305046081543,0.009433154948055744,-0.0009002198348753154
1685474491096870000,2.330869873046875,9.802541732788086,0.004721365869045258,-0.004481945652514696
1685474491116868400,2.350868408203125,9.804370880126953,0.011568782851099968,0.009442731738090515
1685474491136870000,2.370869873046875,9.817174911499023,-0.008647856302559376,0.0027198130264878273
1685474491156870000,2.390869873046875,9.80407428741455,0.002576161175966263,0.0012066776398569345
1685474491176870000,2.410869873046875,9.804935455322266,0.011262324638664722,-0.0035146879963576794
1685474491196868400,2.430868408203125,9.807234764099121,-0.0010534487664699554,0.0068186866119503975
1685474491216870000,2.450869873046875,9.794123649597168,-0.007651868741959333,-0.00869574025273323
1685474491236870000,2.470869873046875,9.803853988647461,-0.01444182451814413,-0.0017525556031614542
1685474491256870000,2.490869873046875,9.816734313964844,0.0029783868230879307,-0.007575253956019878
1685474491276870000,2.510869873046875,9.798519134521484,-0.0011971008498221636,0.00319865345954895
1685474491296870000,2.530869873046875,9.806190490722656,-0.0055545479990541935,0.006186617538332939
1685474491316870000,2.550869873046875,9.809503555297852,-0.009155427105724812,0.002240972826257348
1685474491336870000,2.570869873046875,9.80958080291748,-0.005267243832349777,-0.007240065839141607
1685474491356868400,2.590868408203125,9.798796653747559,0.001599326729774475,-0.004031835589557886
1685474491376870000,2.610869873046875,9.80979061126709,0.006655880715698004,0.0038019923958927393
1685474491396870000,2.630869873046875,9.793453216552734,0.012306197546422482,-0.0005841852398589253
1685474491416870000,2.650869873046875,9.787802696228027,-0.0051906295120716095,0.00397437484934926
1685474491436870000,2.670869873046875,9.81623649597168,0.002892195712774992,0.00013407529331743717
1685474491456870000,2.690869873046875,9.817989349365234,-0.0015227121766656637,0.001924938173033297
1685474491476870000,2.710869873046875,9.800617218017578,-0.002834734972566366,0.006148310378193855
1685474491496870000,2.730869873046875,9.784374237060547,-0.0013790600933134556,-0.005822698585689068
1685474491516868400,2.750868408203125,9.801487922668457,0.011271901428699493,-0.003562572179362178
1685474491536870000,2.770869873046875,9.810729026794434,0.010228029452264309,-0.004328716546297073
1685474491556870000,2.790869873046875,9.820977210998535,-0.011156979948282242,0.00859039556235075
1685474491576870000,2.810869873046875,9.801765441894531,0.011176133528351784,-0.0060429647564888
1685474491596870000,2.830869873046875,9.804887771606445,0.0031316159293055534,-0.01114740315824747
1685474491616868400,2.850868408203125,9.80642032623291,-0.008772355504333973,-0.016625335440039635
1685474491636870000,2.870869873046875,9.797102928161621,-0.013034033589065075,-0.007958326488733292
1685474491656870000,2.890869873046875,9.806296348571777,0.0012066776398569345,-0.0067995330318808556
1685474491676870000,2.910869873046875,9.801689147949219,0.005602431949228048,0.016577452421188354
1685474491696868400,2.930868408203125,9.801928520202637,-0.00803494080901146,-0.011444284580647945
1685474491716870000,2.950869873046875,9.789536476135254,0.011511322110891342,-0.014872781001031399
1685474491736868400,2.970868408203125,9.809455871582031,-0.006110002286732197,-0.006904877722263336
1685474491756870000,2.990869873046875,9.812338829040527,0.004156333860009909,0.009366117417812347
1685474491776868400,3.010868408203125,9.797121047973633,-0.0011779472697526217,0.001781286089681089
1685474491796870000,3.030869873046875,9.810959815979004,0.010745177045464516,-0.004098873119801283
1685474491816870000,3.050869873046875,9.80810546875,0.0018674773164093494,-0.0031124623492360115
1685474491836870000,3.070869873046875,9.809043884277344,-0.003696647472679615,0.0054587796330451965
1685474491856870000,3.090869873046875,9.80789566040039,-0.005784391425549984,-0.009021352045238018
1685474491876868400,3.110868408203125,9.808852195739746,-0.00022984336828812957,0.003993528429418802
1685474491896870000,3.130869873046875,9.794373512268066,0.009289502166211605,0.00022026654914952815
1685474491916870000,3.150869873046875,9.795588493347168,-0.0008427590364590287,-0.009701305069029331
1685474491936870000,3.170869873046875,9.805232048034668,-0.0055353944189846516,-0.007929596118628979
1685474491956868400,3.190868408203125,9.795072555541992,0.0038115691859275103,0.002106897532939911
1685474491976870000,3.210869873046875,9.809063911437988,0.0026144683361053467,-0.0015035585965961218
1685474491996868400,3.230868408203125,9.806391716003418,0.0059088896960020065,-0.007920019328594208
1685474492016870000,3.250869873046875,9.790091514587402,0.005592855159193277,0.0010247182799503207
1685474492036870000,3.270869873046875,9.801536560058594,-0.00894473772495985,-0.008647856302559376
1685474492056868400,3.290868408203125,9.797293663024902,-0.0034668040461838245,-0.004137180279940367
1685474492076870000,3.310869873046875,9.809427261352539,-0.008609549142420292,-0.002413355279713869
1685474492096870000,3.330869873046875,9.80112361907959,-0.0039264908991754055,0.006722918711602688
1685474492116870000,3.350869873046875,9.803739547729492,0.0037828385829925537,-0.009270348586142063
1685474492136870000,3.370869873046875,9.797379493713379,0.0015418659895658493,-0.008121131919324398
1685474492156870000,3.390869873046875,9.790283203125,-0.0104866037145257,-0.00442448491230607
1685474492176868400,3.410868408203125,9.811219215393066,-0.00027772740577347577,-0.016175225377082825
1685474492196870000,3.430869873046875,9.797896385192871,0.001446097856387496,-0.0002585737674962729
1685474492216870000,3.450869873046875,9.803193092346191,-0.003840299556031823,-0.017008408904075623
1685474492236870000,3.470869873046875,9.797082901000977,-0.007383718155324459,-0.008216899819672108
1685474492256870000,3.490869873046875,9.806266784667969,-0.011434707790613174,-0.0009097966831177473
1685474492276870000,3.510869873046875,9.807013511657715,-0.0016759412828832865,-0.010438719764351845
1685474492296870000,3.530869873046875,9.797666549682617,0.0025570073630660772,-0.0007948749698698521
1685474492316870000,3.550869873046875,9.804006576538086,-0.00784340500831604,-0.0071059903129935265
1685474492336870000,3.570869873046875,9.798394203186035,-0.008006210438907146,-0.0031507695093750954
1685474492356870000,3.590869873046875,9.7944974899292,-0.0003543418715707958,-0.01223915908485651
1685474492376870000,3.610869873046875,9.796316146850586,-0.008322244510054588,-0.0015705963596701622
1685474492396870000,3.630869873046875,9.780362129211426,-0.00703895278275013,-0.005276820622384548
1685474492416870000,3.650869873046875,9.815011024475098,0.0034284968860447407,-0.0072687966749072075
1685474492436868400,3.670868408203125,9.804696083068848,0.010362105444073677,0.00003830722562270239
1685474492456870000,3.690869873046875,9.801057815551758,0.0025187002029269934,-0.006023811176419258
1685474492476870000,3.710869873046875,9.793185234069824,-0.0039169141091406345,-0.00008619125583209097
1685474492496870000,3.730869873046875,9.802139282226562,-0.011166556738317013,-0.00329442135989666
1685474492516870000,3.750869873046875,9.812942504882812,-0.0035817257594317198,-0.016673222184181213
1685474492536870000,3.770869873046875,9.798567771911621,0.005248090252280235,0.000976834329776466
1685474492556870000,3.790869873046875,9.80184268951416,-0.008178592659533024,0.0075369467958807945
1685474492576870000,3.810869873046875,9.800597190856934,-0.001283292076550424,0.006483498029410839
1685474492596870000,3.830869873046875,9.809858322143555,0.0015227121766656637,-0.0033231519628316164
1685474492616870000,3.850869873046875,9.796096801757812,0.015581464394927025,-0.0021739350631833076
1685474492636870000,3.870869873046875,9.80882453918457,-0.004491522442549467,-0.010927136056125164
1685474492656870000,3.890869873046875,9.796987533569336,0.004960786085575819,-0.004204218275845051
1685474492676870000,3.910869873046875,9.80980110168457,-0.005209783092141151,-0.003380612935870886
1685474492696870000,3.930869873046875,9.798423767089844,-0.0005937620298936963,0.007019799202680588
1685474492716870000,3.950869873046875,9.78369426727295,-0.013426683843135834,-0.006416460499167442
1685474492736870000,3.970869873046875,9.803633689880371,-0.006253655068576336,0.006885724142193794
1685474492756870000,3.990869873046875,9.803126335144043,-0.0076231383718550205,-0.0020398597698658705
1685474492776870000,4.010869873046875,9.809618949890137,0.004826710559427738,0.003256114199757576
1685474492796870000,4.030869873046875,9.802896499633789,-0.004548983182758093,-0.009059659205377102
1685474492816870000,4.050869873046875,9.799314498901367,-0.0010438719764351845,-0.0036391867324709892
1685474492836870000,4.070869873046875,9.800999641418457,0.012344504706561565,0.0017525556031614542
1685474492856870000,4.090869873046875,9.80725383758545,0.004175487905740738,-0.008370129391551018
1685474492876868400,4.110868408203125,9.805424690246582,0.018119318410754204,0.0023463177494704723
1685474492896870000,4.130869873046875,9.786989212036133,0.001436521066352725,-0.011185710318386555
1685474492916870000,4.150869873046875,9.812721252441406,0.014279019087553024,-0.008877700194716454
1685474492936870000,4.170869873046875,9.79726505279541,-0.004865017719566822,-0.006186617538332939
1685474492956870000,4.190869873046875,9.814934730529785,-0.005363011732697487,0.005937620066106319
1685474492976870000,4.210869873046875,9.801918983459473,0.002911349292844534,-0.01223915908485651
1685474492996868400,4.230868408203125,9.800042152404785,0.013158531859517097,-0.0021739350631833076
1685474493016870000,4.250869873046875,9.81028938293457,-0.008925584144890308,0.00319865345954895
1685474493036870000,4.270869873046875,9.811802864074707,-0.004319139756262302,-0.003945644479244947
1685474493056870000,4.290869873046875,9.80620002746582,0.015581464394927025,-0.012469002977013588
1685474493076870000,4.310869873046875,9.7930326461792,-0.0043670241720974445,0.007460332475602627
1685474493096870000,4.330869873046875,9.801813125610352,-0.0036391867324709892,0.00010534487955737859
1685474493116870000,4.350869873046875,9.80151653289795,0.01218169741332531,0.006416460499167442
1685474493136868400,4.370868408203125,9.800932884216309,-0.0010151414899155498,-0.0027772739995270967
1685474493156870000,4.390869873046875,9.797341346740723,0.0020398597698658705,-0.007603984791785479
1685474493176870000,4.410869873046875,9.799553871154785,-0.014844050630927086,-0.0008427590364590287
1685474493196870000,4.430869873046875,9.799113273620605,-0.0003734954516403377,-0.004501099232584238
1685474493216870000,4.450869873046875,9.800874710083008,0.007029375992715359,-0.010754753835499287
1685474493236870000,4.470869873046875,9.801584243774414,-0.0008427590364590287,-0.015370775014162064
1685474493256870000,4.490869873046875,9.800530433654785,-0.004759673029184341,0.007575253956019878
1685474493276870000,4.510869873046875,9.807886123657227,0.010658985935151577,0.001599326729774475
1685474493296870000,4.530869873046875,9.803201675415039,0.01288080494850874,-0.00022026654914952815
1685474493316870000,4.550869873046875,9.797236442565918,-0.0046447510831058025,0.0038211459759622812
1685474493336870000,4.570869873046875,9.798328399658203,-0.008456320501863956,-0.009921572171151638
1685474493356870000,4.590869873046875,9.812990188598633,0.0034380736760795116,0.004932055249810219
1685474493376870000,4.610869873046875,9.799898147583008,-0.00329442135989666,0.00594719685614109
1685474493396870000,4.630869873046875,9.808575630187988,-0.006052541546523571,0.001436521066352725
1685474493416870000,4.650869873046875,9.801286697387695,-0.0004118026699870825,-0.009979032911360264
1685474493436870000,4.670869873046875,9.82005786895752,0.005401318892836571,-0.0035051112063229084
1685474493456870000,4.690869873046875,9.791135787963867,-0.0015514427796006203,0.009155427105724812
1685474493476870000,4.710869873046875,9.796049118041992,0.012478579767048359,-0.010639832355082035
1685474493496870000,4.730869873046875,9.80397891998291,0.009165003895759583,-0.012172120623290539
1685474493516870000,4.750869873046875,9.79427719116211,-0.001158793573267758,0.00658884271979332
1685474493536870000,4.770869873046875,9.808575630187988,0.006100425496697426,0.007479486055672169
1685474493556870000,4.790869873046875,9.80451488494873,0.002863465342670679,0.0012545617064461112
1685474493576870000,4.810869873046875,9.82032585144043,-0.0014077905798330903,-0.006062118336558342
1685474493596870000,4.830869873046875,9.807694435119629,0.0011683704797178507,0.006751649081707001
1685474493616870000,4.850869873046875,9.79787826538086,-0.000028730421036016196,-0.0035242647863924503
1685474493636870000,4.870869873046875,9.803930282592773,0.00032561144325882196,0.006607996299862862
1685474493656870000,4.890869873046875,9.803470611572266,0.0020781669300049543,-0.01023760624229908
1685474493676870000,4.910869873046875,9.793118476867676,0.0063781533390283585,-0.00649307481944561
1685474493696870000,4.930869873046875,9.790053367614746,-0.005276820622384548,0.002844311762601137
1685474493716870000,4.950869873046875,9.804763793945312,-0.004558559972792864,-0.0171807911247015
1685474493736870000,4.970869873046875,9.783914566040039,-0.00021068975911475718,-0.017554286867380142
1685474493756870000,4.990869873046875,9.811755180358887,-0.0033135751727968454,-0.004625597503036261
1685474493776870000,5.010869873046875,9.782191276550293,0.006138733588159084,0.0034476504661142826
1685474493796870000,5.030869873046875,9.8029146194458,-0.00020111293997615576,-0.0015035585965961218
1685474493816870000,5.050869873046875,9.800750732421875,0.005305550992488861,-0.0051810527220368385
1685474493836870000,5.070869873046875,9.790312767028809,-0.00904050562530756,0.010802637785673141
1685474493856870000,5.090869873046875,9.802963256835938,0.004175487905740738,-0.013235146179795265
1685474493876870000,5.110869873046875,9.809465408325195,-0.0015035585965961218,-0.01443224772810936
1685474493896871400,5.130871337890625,9.781319618225098,-0.012631808407604694,-0.012957419268786907
1685474493916870000,5.150869873046875,9.801498413085938,0.0020590133499354124,-0.006722918711602688
1685474493936870000,5.170869873046875,9.789928436279297,-0.0021547814831137657,-0.00022984336828812957
1685474493956870000,5.190869873046875,9.791154861450195,-0.0010055646998807788,-0.014709975570440292
1685474493976871400,5.210871337890625,9.790953636169434,-0.016309302300214767,0.0007948749698698521
1685474493996871400,5.230871337890625,9.798041343688965,0.005966350436210632,-0.000028730421036016196
1685474494016871400,5.250871337890625,9.79784870147705,0.0003734954516403377,-0.0021739350631833076
1685474494036871400,5.270871337890625,9.805156707763672,-0.005286397412419319,-0.0028251581825315952
1685474494056871400,5.290871337890625,9.809762954711914,0.005353434942662716,-0.0007565676933154464
1685474494076871400,5.310871337890625,9.796689987182617,-0.0023271639365702868,0.0010342950699850917
1685474494096871400,5.330871337890625,9.812798500061035,-0.002930502872914076,0.0015322890831157565
1685474494116871400,5.350871337890625,9.802685737609863,-0.0033997665159404278,0.003907337319105864
1685474494136870000,5.370869873046875,9.7954740524292,0.006062118336558342,0.0026910826563835144
1685474494156870000,5.390869873046875,9.802963256835938,0.0018195933662354946,-0.0031411927193403244
1685474494176871400,5.410871337890625,9.791604995727539,-0.01368525717407465,0.007766790222376585
1685474494196870000,5.430869873046875,9.804006576538086,0.002279279986396432,-0.008676586672663689
1685474494216870000,5.450869873046875,9.804993629455566,0.002882618922740221,-0.0021835120860487223
1685474494236870000,5.470869873046875,9.802982330322266,0.0055353944189846516,0.002451662439852953
1685474494256870000,5.490869873046875,9.800932884216309,-0.00019153613538946956,-0.001781286089681089
1685474494276870000,5.510869873046875,9.795866012573242,-0.005889736115932465,-0.009184157475829124
1685474494296870000,5.530869873046875,9.788875579833984,0.0036296097096055746,0.010678139515221119
1685474494316870000,5.550869873046875,9.810471534729004,0.00739329494535923,-0.006387730129063129
1685474494336870000,5.570869873046875,9.797150611877441,0.008829816244542599,-0.005152322351932526
1685474494356870000,5.590869873046875,9.791805267333984,-0.01124317105859518,0.002231396036222577
1685474494376870000,5.610869873046875,9.77889633178711,-0.0059184664860367775,0.00042137951822951436
1685474494396870000,5.630869873046875,9.803729057312012,-0.011971008032560349,-0.005315127782523632
1685474494416870000,5.650869873046875,9.800894737243652,-0.0023463177494704723,-0.017554286867380142
1685474494436870000,5.670869873046875,9.797188758850098,0.00022026654914952815,-0.009979032911360264
1685474494456870000,5.690869873046875,9.796402931213379,0.0030837319791316986,0.008571241982281208
1685474494476868400,5.710868408203125,9.796106338500977,-0.003725377842783928,0.004108449909836054
1685474494496870000,5.730869873046875,9.79677677154541,0.004309562966227531,-0.005726930685341358
1685474494516870000,5.750869873046875,9.801774978637695,-0.0031603462994098663,0.00009576806769473478
1685474494536868400,5.770868408203125,9.810567855834961,0.005669469945132732,0.0013886369997635484
1685474494556870000,5.790869873046875,9.796326637268066,0.0027006594464182854,0.0020494365599006414
1685474494576870000,5.810869873046875,9.810585975646973,-0.004510676022619009,-0.007575253956019878
1685474494596870000,5.830869873046875,9.794478416442871,-0.003227383829653263,-0.004577713552862406
1685474494616870000,5.850869873046875,9.802369117736816,0.0035817257594317198,-0.006311115808784962
1685474494636870000,5.870869873046875,9.814082145690918,0.00018195933080278337,0.012373235076665878
1685474494656871400,5.890871337890625,9.802877426147461,0.007852981798350811,-0.011358093470335007
1685474494676870000,5.910869873046875,9.788128852844238,-0.009423578158020973,-0.0187226589769125
1685474494696870000,5.930869873046875,9.812444686889648,-0.005487510003149509,0.011434707790613174
1685474494716871400,5.950871337890625,9.790063858032227,-0.008619125932455063,-0.0015705963596701622
1685474494736871400,5.970871337890625,9.801717758178711,0.009289502166211605,-0.009892841801047325
1685474494756870000,5.990869873046875,9.802407264709473,-0.00968215148895979,-0.00894473772495985
1685474494776870000,6.010869873046875,9.815642356872559,0.005659893155097961,-0.011300632730126381
1685474494796870000,6.030869873046875,9.798423767089844,0.009203311055898666,-0.016510413959622383
1685474494816870000,6.050869873046875,9.79116439819336,-0.012258312664926052,-0.007852981798350811
1685474494836870000,6.070869873046875,9.7836275100708,-0.005267243832349777,0.00883939303457737
1685474494856870000,6.090869873046875,9.799649238586426,-0.0013599065132439137,0.0030166939832270145
1685474494876870000,6.110869873046875,9.801095962524414,-0.004012682009488344,0.009902418591082096
1685474494896870000,6.130869873046875,9.803518295288086,-0.003888183506205678,-0.0020398597698658705
1685474494916871400,6.150871337890625,9.786088943481445,-0.018215086311101913,-0.004462792072445154
1685474494936870000,6.170869873046875,9.799371719360352,-0.007010222412645817,0.001417367486283183
1685474494956870000,6.190869873046875,9.794429779052734,0.004817133769392967,-0.012315774336457253
1685474494976870000,6.210869873046875,9.810681343078613,0.0005458780215121806,0.008446743711829185
1685474494996870000,6.230869873046875,9.793807983398438,0.008992621675133705,0.008762778714299202
1685474495016870000,6.250869873046875,9.802513122558594,-0.0009864111198112369,-0.017104176804423332
1685474495036870000,6.270869873046875,9.797082901000977,-0.0005171475349925458,-0.014671668410301208
1685474495056870000,6.290869873046875,9.796814918518066,0.001953668659552932,0.005133168306201696
1685474495076870000,6.310869873046875,9.797216415405273,0.001283292076550424,0.006991068832576275
1685474495096870000,6.330869873046875,9.792016983032227,-0.011559206061065197,-0.000019153612811351195
1685474495116870000,6.350869873046875,9.802350997924805,-0.0006799532566219568,-0.004481945652514696
1685474495136870000,6.370869873046875,9.7850923538208,0.008427590131759644,-0.0016855180729180574
1685474495156870000,6.390869873046875,9.791576385498047,-0.011070788837969303,-0.010304644703865051
1685474495176870000,6.410869873046875,9.793807983398438,-0.00242293206974864,-0.007987056858837605
1685474495196870000,6.430869873046875,9.795866012573242,-0.0015418659895658493,-0.0035146879963576794
1685474495216870000,6.450869873046875,9.80358600616455,0.006167463958263397,-0.006952761672437191
1685474495236870000,6.470869873046875,9.799983978271484,-0.010668562725186348,-0.00979707296937704
1685474495256870000,6.490869873046875,9.797648429870605,-0.010333375073969364,-0.006924031302332878
1685474495276870000,6.510869873046875,9.795886039733887,-0.004702212288975716,-0.011089942418038845
1685474495296870000,6.530869873046875,9.792706489562988,-0.002758120186626911,-0.004232948645949364
1685474495316870000,6.550869873046875,9.793941497802734,-0.01088882889598608,-0.003715801052749157
1685474495336870000,6.570869873046875,9.794879913330078,-0.019709067419171333,-0.0036391867324709892
1685474495356870000,6.590869873046875,9.791259765625,-0.001944091753102839,-0.007230489049106836
1685474495376870000,6.610869873046875,9.791078567504883,-0.00849462766200304,0.0007661445415578783
1685474495396870000,6.630869873046875,9.789862632751465,-0.008130708709359169,-0.004999093245714903
1685474495416870000,6.650869873046875,9.796134948730469,0.0023654713295400143,-0.00771890627220273
1685474495436870000,6.670869873046875,9.796393394470215,-0.004185064695775509,-0.009375694207847118
1685474495456870000,6.690869873046875,9.799219131469727,0.009078812785446644,-0.010122684761881828
1685474495476870000,6.710869873046875,9.790216445922852,-0.0034093433059751987,-0.004271255806088448
1685474495496870000,6.730869873046875,9.8029146194458,0.007469909265637398,-0.0010247182799503207
1685474495516870000,6.750869873046875,9.797704696655273,0.004012682009488344,0.0026144683361053467
1685474495536870000,6.770869873046875,9.798337936401367,-0.0042999861761927605,0.0006129156099632382
1685474495556870000,6.790869873046875,9.803174018859863,0.004501099232584238,0.007651868741959333
1685474495576870000,6.810869873046875,9.80571174621582,0.0011683704797178507,0.012641385197639465
1685474495596870000,6.830869873046875,9.810672760009766,-0.0042999861761927605,-0.01379060186445713
1685474495616870000,6.850869873046875,9.796546936035156,-0.005525817163288593,-0.010467450134456158
1685474495636870000,6.870869873046875,9.811285018920898,0.0009193734731525183,-0.00804451759904623
1685474495656870000,6.890869873046875,9.807023048400879,0.002135627903044224,0.005602431949228048
1685474495676870000,6.910869873046875,9.791029930114746,-0.0055353944189846516,-0.018703505396842957
1685474495696870000,6.930869873046875,9.79308032989502,0.005286397412419319,-0.002930502872914076
1685474495716870000,6.950869873046875,9.805060386657715,-0.015026009641587734,-0.010285490192472935
1685474495736870000,6.970869873046875,9.794018745422363,0.008992621675133705,0.024085668846964836
1685474495756870000,6.990869873046875,9.793912887573242,0.000967257481534034,0.007431602105498314
1685474495776870000,7.010869873046875,9.79240894317627,0.0005650316015817225,-0.015571887604892254
1685474495796870000,7.030869873046875,9.815441131591797,-0.0034476504661142826,-0.0003543418715707958
1685474495816870000,7.050869873046875,9.793156623840332,0.004443638492375612,0.01751597970724106
1685474495836870000,7.070869873046875,9.796537399291992,0.009375694207847118,-0.0010438719764351845
1685474495856870000,7.090869873046875,9.796517372131348,-0.00804451759904623,-0.006694188341498375
1685474495876870000,7.110869873046875,9.802302360534668,-0.005736507475376129,-0.007374141365289688
1685474495896870000,7.130869873046875,9.816390037536621,0.01229662075638771,-0.011166556738317013
1685474495916870000,7.150869873046875,9.809245109558105,0.0008523358264937997,0.00036391866160556674
1685474495936868400,7.170868408203125,9.794315338134766,0.006694188341498375,-0.0047500962391495705
1685474495956870000,7.190869873046875,9.782957077026367,-0.009442731738090515,-0.020752940326929092
1685474495976870000,7.210869873046875,9.791757583618164,-0.004022258799523115,0.005257667042315006
1685474495996870000,7.230869873046875,9.792984008789062,0.006167463958263397,0.01846408285200596
1685474496016870000,7.250869873046875,9.782670021057129,-0.005008670035749674,-0.010342951864004135
1685474496036870000,7.270869873046875,9.799429893493652,0.00226012640632689,-0.020005948841571808
1685474496056870000,7.290869873046875,9.820363998413086,-0.008169015869498253,-0.011875240132212639
1685474496076870000,7.310869873046875,9.79273509979248,0.004338293336331844,0.003275267779827118
1685474496096870000,7.330869873046875,9.790360450744629,-0.0010438719764351845,0.00529597420245409
1685474496116870000,7.350869873046875,9.798730850219727,-0.008264783769845963,-0.014030021615326405
1685474496136870000,7.370869873046875,9.797198295593262,0.00884896982461214,-0.00649307481944561
1685474496156870000,7.390869873046875,9.806716918945312,0.011645397171378136,0.02028367668390274
1685474496176870000,7.410869873046875,9.787640571594238,-0.0010534487664699554,-0.0031220391392707825
1685474496196870000,7.430869873046875,9.791739463806152,0.0005363011732697487,-0.020398598164319992
1685474496216870000,7.450869873046875,9.79322338104248,-0.006569689139723778,-0.0020015526097267866
1685474496236870000,7.470869873046875,9.798270225524902,0.011099519208073616,0.0006512228865176439
1685474496256870000,7.490869873046875,9.810615539550781,-0.0008331821882165968,0.008532934822142124
1685474496276870000,7.510869873046875,9.799257278442383,-0.006244078278541565,-0.020810401067137718
1685474496296870000,7.530869873046875,9.801573753356934,0.006512228399515152,-0.00859039556235075
1685474496316870000,7.550869873046875,9.813478469848633,0.005027823615819216,-0.0031699230894446373
1685474496336870000,7.570869873046875,9.795158386230469,-0.005966350436210632,-0.01229662075638771
1685474496356870000,7.590869873046875,9.797762870788574,-0.011377247050404549,-0.009519346058368683
1685474496376870000,7.610869873046875,9.79196834564209,-0.00011492168414406478,-0.0016950948629528284
1685474496396870000,7.630869873046875,9.797523498535156,0.008303090929985046,-0.003878606716170907
1685474496416870000,7.650869873046875,9.775650024414062,0.008255206979811192,-0.01444182451814413
1685474496436871400,7.670871337890625,9.788262367248535,0.00803494080901146,-0.008082824759185314
1685474496456871400,7.690871337890625,9.796833992004395,0.002106897532939911,-0.0013503297232091427
1685474496476871400,7.710871337890625,9.796067237854004,0.0036391867324709892,-0.007316680625081062
1685474496496870000,7.730869873046875,9.791701316833496,-0.01668279804289341,0.015198391862213612
1685474496516870000,7.750869873046875,9.801555633544922,-0.01649126037955284,-0.005736507475376129
1685474496536870000,7.770869873046875,9.785849571228027,-0.0005554548115469515,-0.0002585737674962729
1685474496556870000,7.790869873046875,9.793213844299316,0.0161177646368742,-0.007996633648872375
1685474496576870000,7.810869873046875,9.799314498901367,-0.008360552601516247,0.008580818772315979
1685474496596870000,7.830869873046875,9.80228328704834,0.007259219419211149,-0.00868616346269846
1685474496616870000,7.850869873046875,9.796652793884277,-0.0035913025494664907,-0.002844311762601137
1685474496636870000,7.870869873046875,9.791183471679688,0.010821791365742683,-0.00729752704501152
1685474496656870000,7.890869873046875,9.793740272521973,-0.009481038898229599,-0.0010247182799503207
1685474496676870000,7.910869873046875,9.807310104370117,-0.007575253956019878,-0.01517923828214407
1685474496696870000,7.930869873046875,9.801286697387695,0.004903324879705906,-0.008255206979811192
1685474496716870000,7.950869873046875,9.79802131652832,-0.011367670260369778,0.008006210438907146
1685474496736870000,7.970869873046875,9.788003921508789,0.005506663583219051,-0.007010222412645817
1685474496756870000,7.990869873046875,9.79589557647705,-0.002106897532939911,-0.008092401549220085
1685474496776870000,8.010869873046875,9.783522605895996,0.0070772599428892136,-0.007785943802446127
1685474496796870000,8.030869873046875,9.81002140045166,0.013895946554839611,-0.0025474305730313063
1685474496816870000,8.050869873046874,9.815345764160156,-0.004989516455680132,-0.009030928835272789
1685474496836870000,8.070869873046876,9.804275512695312,0.002384624909609556,0.0006512228865176439
1685474496856870000,8.090869873046875,9.792323112487793,-0.014662091620266438,-0.004826710559427738
1685474496876870000,8.110869873046875,9.806918144226074,-0.001618480309844017,-0.013532028533518314
1685474496896870000,8.130869873046874,9.78718090057373,0.002087743952870369,-0.0038211459759622812
1685474496916870000,8.150869873046876,9.779807090759277,-0.002853888552635908,-0.00959596037864685
1685474496936870000,8.170869873046875,9.78718090057373,0.00804451759904623,-0.007680599112063646
1685474496956870000,8.190869873046875,9.789623260498047,0.005937620066106319,-0.01743936538696289
1685474496976870000,8.210869873046875,9.779825210571289,0.010735600255429745,-0.009174580685794353
1685474496996870000,8.230869873046874,9.787208557128906,-0.001110909623093903,-0.002442085649818182
1685474497016870000,8.250869873046875,9.800472259521484,0.00014365209790412337,0.00684741698205471
1685474497036870000,8.270869873046875,9.800501823425293,-0.0043670241720974445,0.006263231858611107
1685474497056870000,8.290869873046875,9.797762870788574,-0.0038211459759622812,-0.010630255565047264
1685474497076870000,8.310869873046874,9.773303985595703,-0.0006512228865176439,0.004434061702340841
1685474497096870000,8.330869873046876,9.784192085266113,0.00005746084207203239,0.002240972826257348
1685474497116870000,8.350869873046875,9.799160957336426,-0.011252747848629951,-0.0005075707449577749
1685474497136870000,8.370869873046875,9.790599822998047,0.0024995466228574514,-0.0015897499397397041
1685474497156870000,8.390869873046874,9.79983139038086,0.009327810257673264,0.004242525435984135
1685474497176870000,8.410869873046876,9.802254676818848,-0.016912641003727913,-0.009548076428472996
1685474497196870000,8.430869873046875,9.79917049407959,-0.0006799532566219568,-0.010946289636194706
1685474497216870000,8.450869873046875,9.800741195678711,-0.000028730421036016196,-0.006598419509828091
1685474497236870000,8.470869873046874,9.801487922668457,-0.004223371855914593,-0.009308655746281147
1685474497256870000,8.490869873046876,9.79366397857666,-0.0010821791365742683,-0.011214440688490868
1685474497276870000,8.510869873046875,9.802407264709473,0.0027772739995270967,0.003667917102575302
1685474497296870000,8.530869873046875,9.794267654418945,-0.002116474322974682,0.0006224924582056701
1685474497316870000,8.550869873046874,9.793415069580078,0.002116474322974682,-0.003869029926136136
1685474497336868400,8.570868408203125,9.790265083312988,0.008801085874438286,-0.008226476609706879
1685474497356870000,8.590869873046875,9.794554710388184,0.0013886369997635484,0.0071730283088982105
1685474497376870000,8.610869873046875,9.783291816711426,0.005334281362593174,0.001158793573267758
1685474497396870000,8.630869873046874,9.787592887878418,0.001436521066352725,0.00904050562530756
1685474497416870000,8.650869873046876,9.79690170288086,-0.0037828385829925537,-0.0010534487664699554
1685474497436868400,8.670868408203125,9.806228637695312,-0.0034955344162881374,-0.0035338415764272213
1685474497456870000,8.690869873046875,9.782047271728516,0.0015322890831157565,0.0018291701562702656
1685474497476870000,8.710869873046875,9.789010047912598,0.001465251436457038,0.007441178895533085
1685474497496870000,8.730869873046874,9.778493881225586,-0.00020111293997615576,-0.010160991922020912
1685474497516870000,8.750869873046875,9.804131507873535,0.0038211459759622812,0.00032561144325882196
1685474497536870000,8.770869873046875,9.791940689086914,-0.001436521066352725,-0.009576806798577309
1685474497556870000,8.790869873046875,9.798921585083008,0.00013407529331743717,-0.006607996299862862
1685474497576870000,8.810869873046874,9.797159194946289,-0.0050661307759583,-0.012018891982734203
1685474497596870000,8.830869873046876,9.800080299377441,-0.006598419509828091,0.00014365209790412337
1685474497616870000,8.850869873046875,9.771990776062012,0.0033327287528663874,-0.005985504016280174
1685474497636870000,8.870869873046875,9.794486999511719,-0.0021452046930789948,-0.003859453136101365
1685474497656870000,8.890869873046874,9.795483589172363,0.018052279949188232,0.0015705963596701622
1685474497676870000,8.910869873046876,9.790599822998047,0.004242525435984135,0.009069235995411873
1685474497696870000,8.930869873046875,9.795445442199707,-0.007891288958489895,0.013120224699378014
1685474497716870000,8.950869873046875,9.801200866699219,0.016654066741466522,0.004625597503036261
1685474497736870000,8.970869873046874,9.782698631286621,0.0027006594464182854,0.0030550011433660984
1685474497756870000,8.990869873046876,9.805845260620117,-0.0029688100330531597,-0.003208230249583721
1685474497776870000,9.010869873046875,9.780476570129395,-0.0021930888760834932,0.0009959879098460078
1685474497796870000,9.030869873046875,9.796307563781738,0.005152322351932526,-0.01869392767548561
1685474497816870000,9.050869873046874,9.78233528137207,-0.0026144683361053467,-0.004357446916401386
1685474497836870000,9.070869873046876,9.784968376159668,0.007824251428246498,0.0027964275795966387
1685474497856870000,9.090869873046875,9.785667419433594,0.006263231858611107,-0.01218169741332531
1685474497876870000,9.110869873046875,9.792801856994629,-0.013378799892961979,-0.01267969235777855
1685474497896870000,9.130869873046874,9.793932914733887,0.005410895682871342,0.004050989169627428
1685474497916870000,9.150869873046876,9.798500061035156,0.009184157475829124,0.00484586413949728
1685474497936870000,9.170869873046875,9.794516563415527,0.005353434942662716,-0.0011683704797178507
1685474497956871400,9.190871337890625,9.79753303527832,0.0031316159293055534,-0.016338031738996506
1685474497976871400,9.210871337890625,9.799151420593262,0.014844050630927086,0.00045968673657625914
1685474497996870000,9.230869873046874,9.796134948730469,-0.008561665192246437,-0.020341137424111366
1685474498016870000,9.250869873046875,9.797005653381348,-0.007230489049106836,0.01039083581417799
1685474498036870000,9.270869873046875,9.812847137451172,0.0046447510831058025,0.0010247182799503207
1685474498056870000,9.290869873046875,9.79953384399414,0.017381904646754265,0.009289502166211605
1685474498076870000,9.310869873046874,9.826875686645508,0.013752294704318047,-0.0018866308964788914
1685474498096870000,9.330869873046876,9.85220718383789,-0.006215347908437252,-0.019373880699276924
1685474498116870000,9.350869873046875,9.825592994689941,0.007364564575254917,0.0033997665159404278
1685474498136870000,9.370869873046875,9.743911743164062,0.012449849396944046,0.0266618300229311
1685474498156870000,9.390869873046874,9.82290267944336,0.012421119026839733,-0.04107492417097092
1685474498176870000,9.410869873046876,9.829854965209961,0.0321110337972641,0.0928950235247612
1685474498196870000,9.430869873046875,9.810519218444824,0.02147120051085949,0.013225569389760494
1685474498216870000,9.450869873046875,9.719626426696777,0.017879897728562355,0.015045163221657276
1685474498236870000,9.470869873046874,9.864331245422363,0.029850905761122704,0.018186355009675026
1685474498256870000,9.490869873046876,9.78858757019043,0.036602552980184555,0.04684973880648613
1685474498276870000,9.510869873046875,9.766715049743652,0.03524265065789223,-0.01666364260017872
1685474498296870000,9.530869873046875,9.883188247680664,0.030607474967837334,-0.009892841801047325
1685474498316870000,9.550869873046874,9.886980056762695,0.0571160763502121,0.018559850752353668
1685474498336870000,9.570869873046876,9.925296783447266,0.06056372448801994,-0.015275007113814354
1685474498356870000,9.590869873046875,9.983026504516602,0.07147171348333359,0.0036104561295360327
1685474498376870000,9.610869873046875,10.0391845703125,0.08676587045192719,0.009318233467638493
1685474498396870000,9.630869873046874,10.12012767791748,0.11799583584070206,0.013560758903622627
1685474498416870000,9.650869873046876,9.976629257202148,0.15257768332958221,0.0007757213898003101
1685474498436870000,9.670869873046875,10.155667304992676,0.1780615746974945,-0.007977480068802834
1685474498456870000,9.690869873046875,10.18070125579834,0.23443065583705902,-0.0031699230894446373
1685474498476870000,9.710869873046875,9.878945350646973,0.2977907955646515,0.0070772599428892136
1685474498496870000,9.730869873046874,9.747379302978516,0.3862038850784302,0.03959051892161369
1685474498516870000,9.750869873046875,9.800119400024414,0.4475816488265991,0.019938912242650986
1685474498536870000,9.770869873046875,9.6563138961792,0.5127518177032471,0.02111686021089554
1685474498556870000,9.790869873046875,9.665410995483398,0.5907931923866272,-0.0002585737674962729
1685474498576870000,9.810869873046874,9.928016662597656,0.6394338607788086,0.009854533709585667
1685474498596870000,9.830869873046876,10.007265090942383,0.683017909526825,-0.04881298542022705
1685474498616870000,9.850869873046875,9.872040748596191,0.7790253162384033,-0.14720509946346283
1685474498636870000,9.870869873046875,9.867568016052246,0.8503534197807312,0.023214180022478104
1685474498656870000,9.890869873046874,9.792581558227539,0.8748891353607178,0.01878969557583332
1685474498676870000,9.910869873046876,9.58259105682373,0.9463992118835449,0.03552995249629021
1685474498696870000,9.930869873046875,9.570897102355957,1.068273663520813,-0.0389871783554554
1685474498716870000,9.950869873046875,9.85984992980957,1.1974647045135498,-0.056407392024993896
1685474498736870000,9.970869873046874,9.772231101989746,1.1886829137802124,-0.08416098356246948
1685474498756870000,9.990869873046876,9.635244369506836,1.2853032350540161,0.026317063719034195
1685474498776870000,10.010869873046875,9.305438041687012,1.360940933227539,0.029199684038758278
1685474498796870000,10.030869873046875,9.34546947479248,1.482336401939392,0.018167201429605484
1685474498816870000,10.050869873046874,9.4071626663208,1.486847162246704,-0.11324574053287506
1685474498836870000,10.070869873046876,9.593958854675293,1.5000536441802979,0.0006607996765524149
1685474498856870000,10.090869873046875,9.826321601867676,1.5958311557769775,-0.023539790883660316
1685474498876870000,10.110869873046875,9.849143028259277,1.6368966102600098,-0.01943134143948555
1685474498896870000,10.130869873046874,9.545519828796387,1.6875483989715576,-0.08611464500427246
1685474498916870000,10.150869873046876,9.738826751708984,1.764938473701477,-0.01851196587085724
1685474498936871400,10.170871337890626,9.689458847045898,1.7821767330169678,-0.020369866862893105
1685474498956870000,10.190869873046875,9.801861763000488,1.894866943359375,0.10386046767234802
1685474498976870000,10.210869873046875,9.707405090332031,1.9263556003570557,-0.011961431242525578
1685474498996870000,10.230869873046874,9.390968322753906,2.0221810340881348,0.05562209337949753
1685474499016870000,10.250869873046875,9.465447425842285,2.0989487171173096,0.04296155646443367
1685474499036870000,10.270869873046875,9.442117691040039,2.154752731323242,0.07741890847682953
1685474499056870000,10.290869873046875,9.355535507202148,2.1985955238342285,-0.04023216664791107
1685474499076870000,10.310869873046874,9.41147232055664,2.3048596382141113,-0.06308242678642273
1685474499096870000,10.330869873046876,9.2791109085083,2.3712172508239746,0.1715780645608902
1685474499116870000,10.350869873046875,9.301454544067383,2.3626270294189453,0.039801210165023804
1685474499136870000,10.370869873046875,9.469019889831543,2.3933684825897217,0.03097139298915863
1685474499156870000,10.390869873046874,9.415092468261719,2.4283909797668457,-0.004903324879705906
1685474499176870000,10.410869873046876,9.354586601257324,2.483438491821289,-0.008293514139950275
1685474499196870000,10.430869873046875,9.414738655090332,2.5213146209716797,-0.04421611875295639
1685474499216870000,10.450869873046875,9.465208053588867,2.5439159870147705,0.01673068292438984
1685474499236870000,10.470869873046874,9.353532791137695,2.5871264934539795,-0.01793735846877098
1685474499256870000,10.490869873046876,9.242844581604004,2.6292643547058105,-0.003667917102575302
1685474499276870000,10.510869873046875,9.239531517028809,2.656625270843506,-0.02698744274675846
1685474499296870000,10.530869873046875,9.176438331604004,2.6836893558502197,0.009528922848403454
1685474499316870000,10.550869873046874,9.157859802246094,2.6895601749420166,0.04332547262310982
1685474499336870000,10.570869873046876,9.186858177185059,2.714421272277832,0.02018790878355503
1685474499356870000,10.590869873046875,9.139491081237793,2.7290356159210205,-0.008063671179115772
1685474499376870000,10.610869873046875,9.319267272949219,2.7088382244110107,-0.05864836648106575
1685474499396870000,10.630869873046874,9.354413986206055,2.716193199157715,0.013895946554839611
1685474499416870000,10.650869873046876,9.409902572631836,2.691053867340088,0.00684741698205471
1685474499436870000,10.670869873046875,9.510132789611816,2.68469500541687,-0.015026009641587734
1685474499456870000,10.690869873046875,9.656265258789062,2.675405502319336,-0.025962723419070244
1685474499476870000,10.710869873046875,9.450852394104004,2.689971685409546,0.022448034957051277
1685474499496870000,10.730869873046874,9.34862995147705,2.6914658546447754,0.002566584153100848
1685474499516870000,10.750869873046875,9.293150901794434,2.7002956867218018,-0.0306840892881155
1685474499536870000,10.770869873046875,9.368856430053711,2.694051504135132,-0.0191919207572937
1685474499556870000,10.790869873046875,9.354222297668457,2.7066738605499268,0.0009193734731525183
1685474499576870000,10.810869873046874,9.407881736755371,2.709230661392212,-0.035903450101614
1685474499596870000,10.830869873046876,9.391083717346191,2.7063097953796387,0.004137180279940367
1685474499616870000,10.850869873046875,9.412075996398926,2.708617925643921,0.008992621675133705
1685474499636870000,10.870869873046875,9.361529350280762,2.7271299362182617,0.0010247182799503207
1685474499656870000,10.890869873046874,9.370253562927246,2.70308256149292,-0.0059088896960020065
1685474499676871400,10.910871337890624,9.310208320617676,2.710341453552246,0.013139378279447556
1685474499696870000,10.930869873046875,9.342567443847656,2.7040977478027344,-0.006876147352159023
1685474499716870000,10.950869873046875,9.371508598327637,2.7017033100128174,-0.022764069959521294
1685474499736870000,10.970869873046874,9.450958251953125,2.6999220848083496,0.017266983166337013
1685474499756870000,10.990869873046876,9.33986759185791,2.6961584091186523,-0.005075707565993071
1685474499776870000,11.010869873046875,9.301243782043457,2.6899046897888184,0.0015131353866308928
1685474499796870000,11.030869873046875,9.357239723205566,2.6894259452819824,0.02780146896839142
1685474499816870000,11.050869873046874,9.504032135009766,2.6585311889648438,0.018617311492562294
1685474499836870000,11.070869873046876,9.646333694458008,2.663118362426758,-0.023798365145921707
1685474499856870000,11.090869873046875,9.506006240844727,2.66652774810791,-0.016385916620492935
1685474499876870000,11.110869873046875,9.354413986206055,2.647958278656006,-0.050747498869895935
1685474499896870000,11.130869873046874,9.268232345581055,2.6529860496520996,-0.022093692794442177
1685474499916870000,11.150869873046876,9.347681999206543,2.661212682723999,-0.054108958691358566
1685474499936871400,11.170871337890626,9.362009048461914,2.6787190437316895,0.09202353656291962
1685474499956871400,11.190871337890625,9.433586120605469,2.658291816711426,-0.002930502872914076
1685474499976870000,11.210869873046875,9.507643699645996,2.659900665283203,0.010199299082159996
1685474499996870000,11.230869873046874,9.569997787475586,2.640516996383667,0.005698200315237045
1685474500016870000,11.250869873046875,9.38701343536377,2.658320665359497,0.017592594027519226
1685474500036870000,11.270869873046875,9.344664573669434,2.6464643478393555,0.02346317656338215
1685474500056870000,11.290869873046875,9.406167030334473,2.6512911319732666,0.006071695126593113
1685474500076870000,11.310869873046874,9.348677635192871,2.6493852138519287,-0.003658340312540531
1685474500096870000,11.330869873046876,9.40827465057373,2.6617774963378906,0.038355108350515366
1685474500116870000,11.350869873046875,9.420848846435547,2.6587705612182617,-0.00024899697746150196
1685474500136870000,11.370869873046875,9.412104606628418,2.6426432132720947,-0.009701305069029331
1685474500156870000,11.390869873046874,9.447797775268555,2.6470773220062256,0.02104024589061737
1685474500176870000,11.410869873046876,9.4170560836792,2.64316987991333,-0.005956773646175861
1685474500196870000,11.430869873046875,9.386506080627441,2.6357192993164062,-0.005305550992488861
1685474500216870000,11.450869873046875,9.416443824768066,2.6416378021240234,0.005133168306201696
1685474500236870000,11.470869873046874,9.422409057617188,2.6307103633880615,-0.015935806557536125
1685474500256870000,11.490869873046876,9.510037422180176,2.626812696456909,0.03414131700992584
1685474500276871400,11.510871337890626,9.615496635437012,2.619907855987549,0.01832043007016182
1685474500296871400,11.530871337890625,9.510295867919922,2.6209325790405273,-0.06876147538423538
1685474500316871400,11.550871337890625,9.338851928710938,2.6438498497009277,-0.001924938173033297
1685474500336870000,11.570869873046876,9.178545951843262,2.6581099033355713,-0.0009385270532220602
1685474500356871400,11.590871337890626,9.251492500305176,2.6725897789001465,0.03683239594101906
1685474500376870000,11.610869873046875,9.366241455078125,2.639511823654175,0.013464991003274918
1685474500396870000,11.630869873046874,9.481882095336914,2.6216413974761963,0.010457873344421387
1685474500416870000,11.650869873046876,9.591297149658203,2.6310935020446777,0.01517923828214407
1685474500436870000,11.670869873046875,9.523435592651367,2.619189739227295,0.03959051892161369
1685474500456870000,11.690869873046875,9.528051376342773,2.613175392150879,0.00529597420245409
1685474500476870000,11.710869873046875,9.385068893432617,2.6120738983154297,-0.016175225377082825
1685474500496871400,11.730871337890624,9.294472694396973,2.624859094619751,0.005669469945132732
1685474500516870000,11.750869873046875,9.35791015625,2.6200802326202393,-0.013733141124248505
1685474500536871400,11.770871337890625,9.532753944396973,2.608703136444092,0.027456704527139664
1685474500556870000,11.790869873046875,9.520772933959961,2.6210379600524902,0.04107492417097092
1685474500576870000,11.810869873046874,9.553228378295898,2.5969810485839844,0.02815581113100052
1685474500596870000,11.830869873046876,9.540654182434082,2.6138267517089844,0.027504589408636093
1685474500616870000,11.850869873046875,9.398390769958496,2.5973544120788574,-0.008734048344194889
1685474500636870000,11.870869873046875,9.355984687805176,2.621631622314453,0.04633259028196335
1685474500656870000,11.890869873046874,9.344329833984375,2.619936466217041,0.03376782312989235
1685474500676870000,11.910869873046876,9.397932052612305,2.5996432304382324,0.0019632454495877028
1685474500696870000,11.930869873046875,9.490002632141113,2.6122655868530273,-0.0059280432760715485
1685474500716870000,11.950869873046875,9.421586036682129,2.602267265319824,0.0007086837431415915
1685474500736870000,11.970869873046874,9.413349151611328,2.6045849323272705,0.009184157475829124
1685474500756870000,11.990869873046876,9.396896362304688,2.597890853881836,-0.0024803930427879095
1685474500776870000,12.010869873046875,9.48039722442627,2.60331130027771,-0.004213795065879822
1685474500796870000,12.030869873046875,9.528759956359863,2.5892717838287354,-0.021605275571346283
1685474500816870000,12.050869873046874,9.509146690368652,2.5928726196289062,0.0030262707732617855
1685474500836870000,12.070869873046876,9.357325553894043,2.6104555130004883,0.020226215943694115
1685474500856870000,12.090869873046875,9.35355281829834,2.6030144691467285,-0.00017238251166418195
1685474500876870000,12.110869873046875,9.360370635986328,2.619907855987549,0.0004501099174376577
1685474500896870000,12.130869873046874,9.41563892364502,2.6097660064697266,-0.01661575958132744
1685474500916870000,12.150869873046876,9.476787567138672,2.597306728363037,0.0031411927193403244
1685474500936870000,12.170869873046875,9.517056465148926,2.60005521774292,0.012459426186978817
1685474500956870000,12.190869873046875,9.537436485290527,2.586226224899292,-0.008418013341724873
1685474500976870000,12.210869873046875,9.492511749267578,2.6042401790618896,-0.008207323029637337
1685474500996870000,12.230869873046874,9.305726051330566,2.607984781265259,0.006991068832576275
1685474501016870000,12.250869873046875,9.340335845947266,2.6128594875335693,0.013627796433866024
1685474501036870000,12.270869873046875,9.352738380432129,2.6073622703552246,-0.007709329482167959
1685474501056870000,12.290869873046875,9.413158416748047,2.60502552986145,0.003878606716170907
1685474501076870000,12.310869873046874,9.480655670166016,2.591905355453491,-0.04618893936276436
1685474501096871400,12.330871337890626,9.407105445861816,2.588649272918701,0.002135627903044224
1685474501116870000,12.350869873046875,9.503754615783691,2.596080780029297,-0.0075273700058460236
1685474501136870000,12.370869873046875,9.419536590576172,2.584933280944824,-0.0402800478041172
1685474501156870000,12.390869873046874,9.36923885345459,2.5855846405029297,-0.04597824811935425
1685474501176870000,12.410869873046876,9.450019836425781,2.598877191543579,0.020226215943694115
1685474501196870000,12.430869873046875,9.549283027648926,2.5881989002227783,0.010745177045464516
1685474501216870000,12.450869873046875,9.539715766906738,2.58465576171875,-0.017171215265989304
1685474501236870000,12.470869873046874,9.501705169677734,2.5844640731811523,-0.0007469909032806754
1685474501256870000,12.490869873046876,9.420149803161621,2.6028897762298584,0.0005554548115469515
1685474501276870000,12.510869873046875,9.444876670837402,2.5910146236419678,-0.05767153203487396
1685474501296870000,12.530869873046875,9.30856990814209,2.608022928237915,0.00562158552929759
1685474501316870000,12.550869873046874,9.405344009399414,2.577568769454956,-0.005659893155097961
1685474501336870000,12.570869873046876,9.435108184814453,2.594395160675049,-0.009768342599272728
1685474501356870000,12.590869873046875,9.492156982421875,2.583190441131592,-0.021078553050756454
1685474501376870000,12.610869873046875,9.452767372131348,2.5914266109466553,0.028807034716010094
1685474501396870000,12.630869873046874,9.403351783752441,2.578277587890625,0.010754753835499287
1685474501416870000,12.650869873046876,9.341792106628418,2.5846269130706787,-0.009998186491429806
1685474501436870000,12.670869873046875,9.481470108032227,2.559966564178467,-0.027236439287662506
1685474501456870000,12.690869873046875,9.445805549621582,2.5610392093658447,-0.0249954666942358
1685474501476870000,12.710869873046875,9.474996566772461,2.5525636672973633,-0.012066775932908058
1685474501496870000,12.730869873046874,9.505277633666992,2.546731472015381,0.012976572848856449
1685474501516870000,12.750869873046875,9.450479507446289,2.5636727809906006,-0.021547814831137657
1685474501536870000,12.770869873046875,9.458465576171875,2.5565860271453857,-0.0008331821882165968
1685474501556870000,12.790869873046875,9.419095993041992,2.563826084136963,0.013895946554839611
1685474501576870000,12.810869873046874,9.43465805053711,2.551347494125366,-0.009749189019203186
1685474501596870000,12.830869873046876,9.464299201965332,2.5560688972473145,-0.00032561144325882196
1685474501616870000,12.850869873046875,9.386295318603516,2.564304828643799,0.0021643582731485367
1685474501636870000,12.870869873046875,9.309269905090332,2.562734365463257,0.027447128668427467
1685474501656870000,12.890869873046874,9.325079917907715,2.5580129623413086,0.035367149859666824
1685474501676870000,12.910869873046876,9.404577255249023,2.5390796661376953,0.017506403848528862
1685474501696870000,12.930869873046875,9.391332626342773,2.52557635307312,-0.01774582266807556
1685474501716870000,12.950869873046875,9.410056114196777,2.5167272090911865,0.011099519208073616
1685474501736870000,12.970869873046874,9.367352485656738,2.511488676071167,-0.026604369282722473
1685474501756870000,12.990869873046876,9.398160934448242,2.4950549602508545,0.037665579468011856
1685474501776870000,13.010869873046875,9.3853759765625,2.469724416732788,0.03145023435354233
1685474501796870000,13.030869873046875,9.39283561706543,2.442056894302368,0.053141701966524124
1685474501816870000,13.050869873046874,9.424028396606445,2.421907424926758,0.010467450134456158
1685474501836870000,13.070869873046876,9.447979927062988,2.388120412826538,0.013292607851326466
1685474501856870000,13.090869873046875,9.46768856048584,2.381004810333252,-0.002413355279713869
1685474501876870000,13.110869873046875,9.399683952331543,2.3225481510162354,-0.02303222008049488
1685474501896870000,13.130869873046874,9.436545372009277,2.296748161315918,-0.00969172827899456
1685474501916870000,13.150869873046876,9.394350051879883,2.2633347511291504,0.01673068292438984
1685474501936870000,13.170869873046875,9.375493049621582,2.238636016845703,-0.000957680691499263
1685474501956870000,13.190869873046875,9.388374328613281,2.181452989578247,-0.06096595525741577
1685474501976870000,13.210869873046875,9.292069435119629,2.142791271209717,0.06094679981470108
1685474501996870000,13.230869873046874,9.497902870178223,2.0500686168670654,-0.15175408124923706
1685474502016870000,13.250869873046875,9.671961784362793,2.0333571434020996,-0.06592673808336258
1685474502036870000,13.270869873046875,9.615516662597656,1.9440534114837646,-0.1342189460992813
1685474502056870000,13.290869873046875,9.783714294433594,1.9277441501617432,-0.06879020482301712
1685474502076870000,13.310869873046874,9.582849502563477,1.9055546522140503,-0.042904093861579895
1685474502096870000,13.330869873046876,9.735657691955566,1.8463796377182007,-0.002882618922740221
1685474502116870000,13.350869873046875,9.692294120788574,1.8161169290542603,0.025819070637226105
1685474502136870000,13.370869873046875,9.643030166625977,1.7863234281539917,0.006579265929758549
1685474502156870000,13.390869873046874,9.562747955322266,1.732607126235962,-0.008082824759185314
1685474502176870000,13.410869873046876,9.449357986450195,1.741044282913208,0.18987934291362762
1685474502196870000,13.430869873046875,9.621214866638184,1.6505053043365479,0.01508347038179636
1685474502216870000,13.450869873046875,9.744400978088379,1.5614312887191772,-0.1491587609052658
1685474502236870000,13.470869873046874,9.412440299987793,1.5509734153747559,-0.02896026335656643
1685474502256870000,13.490869873046876,9.226937294006348,1.4938477277755737,0.33858799934387207
1685474502276870000,13.510869873046875,9.17944622039795,1.38988196849823,0.1286739856004715
1685474502296870000,13.530869873046875,8.985208511352539,1.3273454904556274,-0.06042007356882095
1685474502316870000,13.550869873046874,9.966400146484375,1.2089760303497314,-0.13229399919509888
1685474502336870000,13.570869873046876,10.523015022277832,1.0897449254989624,0.11230721324682236
1685474502356870000,13.590869873046875,10.589075088500977,1.07379949092865,0.0444268062710762
1685474502376870000,13.610869873046875,10.442904472351074,1.0453468561172485,0.03749319911003113
1685474502396870000,13.630869873046874,9.862042427062988,1.0350421667099,-0.0015035585965961218
1685474502416870000,13.650869873046876,9.58218002319336,1.02096426486969,-0.0038211459759622812
1685474502436870000,13.670869873046875,9.517478942871094,1.0018010139465332,0.006234501488506794
1685474502456870000,13.690869873046875,9.520294189453125,0.9694793224334717,0.04530787095427513
1685474502476870000,13.710869873046875,9.672411918640137,0.9195458292961121,-0.059586890041828156
1685474502496870000,13.730869873046874,9.865365028381348,0.8771014213562012,-0.04144842177629471
1685474502516870000,13.750869873046875,9.707798957824707,0.8474516868591309,-0.003208230249583721
1685474502536870000,13.770869873046875,9.635052680969238,0.8115864992141724,0.008312667720019817
1685474502556870000,13.790869873046875,9.692791938781738,0.7984088063240051,0.20098844170570374
1685474502576870000,13.810869873046874,9.69615364074707,0.7321277260780334,0.06324522942304611
1685474502596870000,13.830869873046876,9.800482749938965,0.6897791028022766,0.020417751744389534
1685474502616870000,13.850869873046875,9.83580207824707,0.6448734402656555,0.005659893155097961
1685474502636870000,13.870869873046875,9.828628540039062,0.6074855923652649,0.16057433187961578
1685474502656870000,13.890869873046874,9.787496566772461,0.5377663969993591,-0.03488830476999283
1685474502676870000,13.910869873046876,9.798145294189453,0.50669926404953,-0.028299463912844658
1685474502696870000,13.930869873046875,9.867241859436035,0.46513593196868896,0.0120859295129776
1685474502716870000,13.950869873046875,9.845532417297363,0.43541911244392395,0.02883576601743698
1685474502736870000,13.970869873046874,9.759560585021973,0.3857250511646271,-0.08000464737415314
1685474502756870000,13.990869873046876,9.750223159790039,0.3624821603298187,0.020915746688842773
1685474502776870000,14.010869873046875,9.63089656829834,0.3388274312019348,0.01943134143948555
1685474502796870000,14.030869873046875,9.742303848266602,0.29122114181518555,0.041620802134275436
1685474502816870000,14.050869873046874,9.673523902893066,0.2544749081134796,0.04956955462694168
1685474502836870000,14.070869873046876,9.805204391479492,0.2100864052772522,0.09616071730852127
1685474502856870000,14.090869873046875,9.87451171875,0.16122554242610931,0.06176082789897919
1685474502876870000,14.110869873046875,9.864234924316406,0.08571241796016693,0.0390925258398056
1685474502896870000,14.130869873046874,10.630887985229492,0.03217807039618492,-0.01068771630525589
1685474502916870000,14.150869873046876,10.10891342163086,0.04410119727253914,0.01824381574988365
1685474502936870000,14.170869873046875,9.791422843933105,0.044187385588884354,0.009318233467638493
1685474502956870000,14.190869873046875,9.748011589050293,0.05253836140036583,-0.003878606716170907
1685474502976870000,14.210869873046875,9.810441970825195,0.03587471693754196,-0.002901772502809763
1685474502996870000,14.230869873046874,9.779892921447754,0.02663310058414936,0.01637633889913559
1685474503016870000,14.250869873046875,9.830400466918945,0.024890121072530746,0.0007565676933154464
1685474503036870000,14.270869873046875,9.790350914001465,0.030214823782444,0.011971008032560349
1685474503056870000,14.290869873046875,9.806909561157227,0.020101716741919518,0.008868123404681683
1685474503076870000,14.310869873046874,9.807272911071777,0.011942277662456036,0.014844050630927086
1685474503096870000,14.330869873046876,9.791327476501465,0.0253593847155571,-0.0013215993531048298
1685474503116870000,14.350869873046875,9.80440902709961,0.021806389093399048,0.011951854452490807
1685474503136870000,14.370869873046875,9.807147979736328,0.0012545617064461112,0.005880159325897694
1685474503156870000,14.390869873046874,9.794861793518066,0.010975020006299019,0.0039169141091406345
1685474503176870000,14.410869873046876,9.80838394165039,0.004663905128836632,-0.0036391867324709892
1685474503196871400,14.430871337890625,9.771100997924805,0.007661445531994104,0.000814028549939394
1685474503216870000,14.450869873046875,9.772048950195312,0.000814028549939394,0.007354987785220146
1685474503236870000,14.470869873046874,9.762874603271484,0.009979032911360264,0.0111378263682127
1685474503256870000,14.490869873046876,9.805347442626953,0.018703505396842957,0.005430049262940884
1685474503276870000,14.510869873046875,9.788617134094238,0.011156979948282242,0.019393034279346466
1685474503296870000,14.530869873046875,9.788368225097656,0.009509769268333912,0.01069729309529066
1685474503316870000,14.550869873046874,9.785064697265625,0.018215086311101913,0.009825803339481354
1685474503336870000,14.570869873046876,9.788626670837402,0.008916007354855537,-0.003677493892610073
1685474503356870000,14.590869873046875,9.797571182250977,0.005305550992488861,0.015983689576387405
1685474503376870000,14.610869873046875,9.790790557861328,0.004328716546297073,0.007891288958489895
1685474503396870000,14.630869873046874,9.777440071105957,0.016251839697360992,0.0035338415764272213
1685474503416870000,14.650869873046876,9.771129608154297,0.002212242456153035,0.009107543155550957
1685474503436870000,14.670869873046875,9.785198211669922,-0.00003830722562270239,-0.008207323029637337
1685474503456870000,14.690869873046875,9.781654357910156,-0.0020494365599006414,-0.0034189200960099697
1685474503476870000,14.710869873046875,9.783226013183594,0.015763424336910248,0.014068328775465488
1685474503496870000,14.730869873046874,9.775276184082031,-0.001436521066352725,0.016606181859970093
1685474503516870000,14.750869873046875,9.795713424682617,0.00859039556235075,0.009720458649098873
1685474503536870000,14.770869873046875,9.78282356262207,0.0075465235859155655,0.006416460499167442
1685474503556870000,14.790869873046875,9.795780181884766,0.0054683564230799675,0.010831368155777454
1685474503576870000,14.810869873046874,9.781598091125488,0.01592622883617878,0.014604630880057812
1685474503596870000,14.830869873046876,9.798567771911621,-0.009270348586142063,0.004031835589557886
1685474503616870000,14.850869873046875,9.790781021118164,0.009165003895759583,0.004232948645949364
1685474503636870000,14.870869873046875,9.792045593261719,-0.007431602105498314,0.02237142063677311
1685474503656870000,14.890869873046874,9.778446197509766,-0.00784340500831604,0.020178331062197685
1685474503676870000,14.910869873046876,9.77561092376709,0.005123591516166925,0.023376986384391785
1685474503696870000,14.930869873046875,9.780074119567871,-0.009758765809237957,0.015954960137605667
1685474503716870000,14.950869873046875,9.725764274597168,0.00784340500831604,0.005669469945132732
1685474503736870000,14.970869873046874,9.784680366516113,-0.00022984336828812957,0.025627534836530685
1685474503756870000,14.990869873046876,9.785055160522461,-0.0002585737674962729,0.03812526538968086
1685474503776870000,15.010869873046875,9.78788948059082,-0.009021352045238018,0.036363136023283005
1685474503796870000,15.030869873046875,9.776415824890137,-0.0005746083916164935,0.07513962686061859
1685474503816870000,15.050869873046874,9.77126407623291,-0.006675034295767546,0.0864785686135292
1685474503836870000,15.070869873046876,9.745329856872559,-0.01751597970724106,0.05218401923775673
1685474503856870000,15.090869873046875,9.91446590423584,-0.019804837182164192,0.16077543795108795
1685474503876870000,15.110869873046875,9.761792182922363,0.004481945652514696,0.14461936056613922
1685474503896870000,15.130869873046874,9.828580856323242,-0.001599326729774475,0.1676611602306366
1685474503916870000,15.150869873046876,9.746354103088379,0.010275913402438164,0.14878526329994202
1685474503936870000,15.170869873046875,9.785820007324219,-0.003869029926136136,0.1803312748670578
1685474503956871400,15.190871337890625,9.79578971862793,-0.016912641003727913,0.20253030955791473
1685474503976870000,15.210869873046875,9.79236125946045,-0.005372588522732258,0.21012473106384277
1685474503996870000,15.230869873046874,9.804686546325684,-0.016405070200562477,0.35760754346847534
1685474504016870000,15.250869873046875,9.793951034545898,-0.006311115808784962,0.41020336747169495
1685474504036870000,15.270869873046875,9.777814865112305,-0.00027772740577347577,0.5684505105018616
1685474504056870000,15.290869873046875,9.768773078918457,0.057853490114212036,0.6302209496498108
1685474504076870000,15.310869873046874,9.749064445495605,-0.0010247182799503207,0.8672468662261963
1685474504096870000,15.330869873046876,9.752876281738281,-0.018550273030996323,0.9677363038063049
1685474504116870000,15.350869873046875,9.71761417388916,0.0072687966749072075,1.1235413551330566
1685474504136870000,15.370869873046875,9.763113975524902,0.010007763281464577,1.2175856828689575
1685474504156870000,15.390869873046874,9.682103157043457,-0.029745562002062798,1.3794910907745361
1685474504176870000,15.410869873046876,9.697637557983398,0.03828807547688484,1.365623950958252
1685474504196871400,15.430871337890625,9.674337387084961,0.025627534836530685,1.4289361238479614
1685474504216870000,15.450869873046875,9.701630592346191,-0.03839341551065445,1.540984869003296
1685474504236870000,15.470869873046874,9.659416198730469,-0.038326382637023926,1.6319069862365723
1685474504256870000,15.490869873046876,9.683396339416504,-0.02376963384449482,1.647095799446106
1685474504276870000,15.510869873046875,9.651841163635254,-0.026575639843940735,1.8454698324203491
1685474504296870000,15.530869873046875,9.611713409423828,-0.0010821791365742683,1.9142504930496216
1685474504316870000,15.550869873046874,9.539505004882812,-0.027878083288669586,2.118983507156372
1685474504336870000,15.570869873046876,9.542703628540039,-0.009710881859064102,2.2094173431396484
1685474504356871400,15.590871337890626,9.519872665405273,-0.005305550992488861,2.347792387008667
1685474504376871400,15.610871337890625,9.462651252746582,-0.0033135751727968454,2.470557689666748
1685474504396870000,15.630869873046874,9.436142921447754,-0.007833828218281269,2.596712827682495
1685474504416870000,15.650869873046876,9.398390769958496,-0.012928688898682594,2.6786904335021973
1685474504436870000,15.670869873046875,9.37763786315918,-0.016950948163866997,2.7963318824768066
1685474504456871400,15.690871337890625,9.375003814697266,-0.007872135378420353,2.8886234760284424
1685474504476871400,15.710871337890625,9.33861255645752,-0.011089942418038845,2.9728610515594482
1685474504496870000,15.730869873046874,9.304998397827148,-0.006550535559654236,3.052760601043701
1685474504516870000,15.750869873046875,9.25842571258545,-0.019469648599624634,3.155184268951416
1685474504536870000,15.770869873046875,9.240325927734375,-0.029726408421993256,3.2332065105438232
1685474504556870000,15.790869873046875,9.209641456604004,-0.011032480746507645,3.339001417160034
1685474504576870000,15.810869873046874,9.181188583374023,-0.017171215265989304,3.418039083480835
1685474504596870000,15.830869873046876,9.149557113647461,-0.016002843156456947,3.490161895751953
1685474504616870000,15.850869873046875,9.132232666015625,-0.011434707790613174,3.5778567790985107
1685474504636870000,15.870869873046875,9.102993965148926,-0.008513781242072582,3.6406424045562744
1685474504656870000,15.890869873046874,9.076744079589844,-0.03289633244276047,3.730022668838501
1685474504676870000,15.910869873046876,9.04963207244873,-0.019661184400320053,3.787655830383301
1685474504696870000,15.930869873046875,9.018651008605957,-0.007469909265637398,3.8292956352233887
1685474504716871400,15.950871337890625,8.993800163269043,-0.027686547487974167,3.9109573364257812
1685474504736871400,15.970871337890625,8.977298736572266,-0.009892841801047325,3.955240488052368
1685474504756871400,15.990871337890624,8.967951774597168,-0.02815581113100052,3.986297845840454
1685474504776871400,16.010871337890624,8.963804244995117,-0.020274098962545395,4.023906230926514
1685474504796871400,16.030871337890623,8.955914497375488,-0.013962984085083008,4.07070779800415
1685474504816870000,16.050869873046874,8.882516860961914,-0.015571887604892254,4.127335548400879
1685474504836870000,16.070869873046874,8.872566223144531,-0.019421763718128204,4.159551620483398
1685474504856870000,16.090869873046874,8.862137794494629,-0.0007086837431415915,4.1943159103393555
1685474504876870000,16.110869873046877,8.842275619506836,-0.022256499156355858,4.248501300811768
1685474504896870000,16.130869873046876,8.8167724609375,-0.022218191996216774,4.263556003570557
1685474504916870000,16.150869873046876,8.824261665344238,-0.0076422919519245625,4.298061370849609
1685474504936870000,16.170869873046875,8.794142723083496,-0.01223915908485651,4.326801300048828
1685474504956870000,16.190869873046875,8.753335952758789,-0.03301125392317772,4.377874374389648
1685474504976871400,16.210871337890627,8.761868476867676,-0.018205508589744568,4.399785995483398
1685474504996870000,16.230869873046874,8.751334190368652,-0.007460332475602627,4.405034065246582
1685474505016870000,16.250869873046874,8.772871971130371,-0.007603984791785479,4.401509761810303
1685474505036870000,16.270869873046873,8.745281219482422,-0.020810401067137718,4.424293041229248
1685474505056870000,16.290869873046876,8.7632474899292,-0.016673222184181213,4.40789794921875
1685474505076870000,16.310869873046876,8.76695442199707,-0.006435614079236984,4.391750812530518
1685474505096870000,16.330869873046876,8.780657768249512,-0.025148695334792137,4.374522686004639
1685474505116870000,16.350869873046875,8.773571014404297,-0.009404424577951431,4.3935418128967285
1685474505136870000,16.370869873046875,8.778359413146973,-0.007795520592480898,4.386043548583984
1685474505156870000,16.390869873046874,8.76503849029541,-0.0215669684112072,4.375288486480713
1685474505176870000,16.410869873046874,8.767748832702637,-0.003658340312540531,4.386474609375
1685474505196871400,16.430871337890625,8.77027702331543,-0.016721105203032494,4.387757778167725
1685474505216870000,16.450869873046877,8.769903182983398,-0.022687455639243126,4.38282585144043
1685474505236870000,16.470869873046876,8.79192066192627,-0.02635537087917328,4.372607231140137
1685474505256870000,16.490869873046876,8.766178131103516,-0.028261156752705574,4.394796848297119
1685474505276870000,16.510869873046875,8.774337768554688,-0.014154519885778427,4.373698711395264
1685474505296870000,16.530869873046875,8.7632474899292,-0.01698925532400608,4.380651950836182
1685474505316870000,16.550869873046874,8.784987449645996,-0.014211980625987053,4.376552581787109
1685474505336870000,16.570869873046874,8.774615287780762,-0.025550920516252518,4.381628513336182
1685474505356870000,16.590869873046874,8.766531944274902,-0.017266983166337013,4.380651950836182
1685474505376870000,16.610869873046877,8.772517204284668,-0.018923770636320114,4.377376556396484
1685474505396870000,16.630869873046876,8.762328147888184,-0.019584570080041885,4.372061729431152
1685474505416870000,16.650869873046876,8.772871971130371,-0.013024456799030304,4.3748860359191895
1685474505436870000,16.670869873046875,8.793357849121094,-0.01964203082025051,4.358328342437744
1685474505456870000,16.690869873046875,8.793654441833496,-0.01992933452129364,4.343666076660156
1685474505476870000,16.710869873046875,8.8058443069458,-0.012966996058821678,4.346970081329346
1685474505496870000,16.730869873046874,8.788252830505371,-0.02042732760310173,4.329176425933838
1685474505516870000,16.750869873046874,8.80733871459961,-0.021212628111243248,4.327586650848389
1685474505536870000,16.770869873046873,8.807463645935059,-0.015389928594231606,4.310999393463135
1685474505556870000,16.790869873046876,8.796967506408691,-0.016606181859970093,4.313307762145996
1685474505576870000,16.810869873046876,8.805011749267578,-0.018119318410754204,4.311593055725098
1685474505596870000,16.830869873046876,8.814387321472168,-0.025062503293156624,4.303127288818359
1685474505616870000,16.850869873046875,8.811380386352539,-0.015677232295274734,4.275823593139648
1685474505636870000,16.870869873046875,8.80183219909668,-0.025550920516252518,4.280124187469482
1685474505656870000,16.890869873046874,8.827967643737793,-0.017199944704771042,4.259763717651367
1685474505676870000,16.910869873046874,8.851651191711426,-0.0015322890831157565,4.242927551269531
1685474505696870000,16.930869873046873,8.829097747802734,-0.026345795020461082,4.2385125160217285
1685474505716870000,16.950869873046877,8.841317176818848,-0.00549708679318428,4.213047981262207
1685474505736870000,16.970869873046876,8.864943504333496,-0.008360552601516247,4.2100982666015625
1685474505756870000,16.990869873046876,8.871273040771484,-0.01687433384358883,4.186462879180908
1685474505776870000,17.010869873046875,8.878216743469238,-0.01936430297791958,4.149956226348877
1685474505796870000,17.030869873046875,8.889421463012695,-0.010534487664699554,4.117557525634766
1685474505816870000,17.050869873046874,8.913814544677734,-0.017736246809363365,4.077143669128418
1685474505836870000,17.070869873046874,8.930487632751465,-0.013034033589065075,4.055251121520996
1685474505856870000,17.090869873046874,8.95423698425293,-0.015514426864683628,4.018159866333008
1685474505876870000,17.110869873046877,8.959543228149414,-0.018454505130648613,3.9957311153411865
1685474505896870000,17.130869873046876,8.986406326293945,-0.0075465235859155655,3.9534783363342285
1685474505916870000,17.150869873046876,9.00313663482666,-0.014030021615326405,3.898516893386841
1685474505936870000,17.170869873046875,8.999200820922852,-0.02092532441020012,3.8588497638702393
1685474505956870000,17.190869873046875,9.04719066619873,-0.020254945382475853,3.796447277069092
1685474505976870000,17.210869873046875,9.061698913574219,-0.0107834842056036,3.766960382461548
1685474505996870000,17.230869873046874,9.085305213928223,-0.021203050389885902,3.7004878520965576
1685474506016870000,17.250869873046874,9.094653129577637,-0.009739612229168415,3.6663272380828857
1685474506036870000,17.270869873046873,9.105101585388184,-0.013321338221430779,3.6074395179748535
1685474506056870000,17.290869873046876,9.132624626159668,-0.011473014950752258,3.56502366065979
1685474506076870000,17.310869873046876,9.148436546325684,0.07752425223588943,3.5687777996063232
1685474506096870000,17.330869873046876,9.13931941986084,-0.00020111293997615576,3.513012170791626
1685474506116870000,17.350869873046875,9.163825988769531,-0.08298303186893463,3.418383836746216
1685474506136870000,17.370869873046875,9.183036804199219,-0.024497471749782562,3.3792049884796143
1685474506156870000,17.390869873046874,9.2444429397583,-0.01824381574988365,3.3116884231567383
1685474506176870000,17.410869873046874,9.265254020690918,-0.02656606212258339,3.2404274940490723
1685474506196871400,17.430871337890625,9.281132698059082,-0.012823344208300114,3.1873910427093506
1685474506216870000,17.450869873046877,9.2872896194458,-0.01923980563879013,3.133885383605957
1685474506236870000,17.470869873046876,9.305926322937012,-0.022103268653154373,3.0952816009521484
1685474506256874800,17.490874755859377,9.299654006958008,-0.0005841852398589253,3.0448596477508545
1685474506276870000,17.510869873046875,9.342597007751465,-0.012737153097987175,2.975226640701294
1685474506296870000,17.530869873046875,9.36586856842041,-0.016299724578857422,2.9420430660247803
1685474506316870000,17.550869873046874,9.374248504638672,-0.019115306437015533,2.877255916595459
1685474506336870000,17.570869873046874,9.375818252563477,-0.010113107971847057,2.815025568008423
1685474506356870000,17.590869873046874,9.399368286132812,-0.013924676924943924,2.79036545753479
1685474506376929300,17.61092919921875,9.427274703979492,-0.01508347038179636,2.741705894470215
1685474506396870000,17.630869873046876,9.406205177307129,-0.01543781254440546,2.7068557739257812
1685474506416870000,17.650869873046876,9.419374465942383,-0.013043610379099846,2.6530821323394775
1685474506436870000,17.670869873046875,9.457547187805176,-0.015667656436562538,2.626659393310547
1685474506456870000,17.690869873046875,9.465217590332031,-0.016558298841118813,2.5748586654663086
1685474506476870000,17.710869873046875,9.474066734313965,-0.030080748721957207,2.533496379852295
1685474506496870000,17.730869873046874,9.481698989868164,-0.024602817371487617,2.4898548126220703
1685474506516870000,17.750869873046874,9.485386848449707,-0.006579265929758549,2.442373037338257
1685474506536870000,17.770869873046873,9.497146606445312,-0.004836287349462509,2.3620810508728027
1685474506556870000,17.790869873046876,9.515103340148926,-0.03129700571298599,2.294938087463379
1685474506576870000,17.810869873046876,9.568733215332031,-0.02848142385482788,2.1958086490631104
1685474506596870000,17.830869873046876,9.565688133239746,-0.006454767659306526,2.1233792304992676
1685474506616870000,17.850869873046875,9.57299518585205,-0.008408436551690102,2.048210859298706
1685474506636870000,17.870869873046875,9.590147018432617,-0.02073378674685955,1.9558042287826538
1685474506656870000,17.890869873046874,9.6120023727417,-0.014575900509953499,1.8394938707351685
1685474506676870000,17.910869873046874,9.64615249633789,-0.016740258783102036,1.7685871124267578
1685474506696870000,17.930869873046873,9.653133392333984,-0.010630255565047264,1.6549201011657715
1685474506716870000,17.950869873046877,9.69277286529541,-0.0184832364320755,1.553884744644165
1685474506736870000,17.970869873046876,9.717672348022461,-0.017669208347797394,1.4654525518417358
1685474506756870000,17.990869873046876,9.697924613952637,-0.021672314032912254,1.4049654006958008
1685474506776870000,18.010869873046875,9.710575103759766,-0.011731588281691074,1.3430227041244507
1685474506796870000,18.030869873046875,9.71556568145752,-0.010534487664699554,1.2810224294662476
1685474506816870000,18.050869873046874,9.722738265991211,-0.00649307481944561,1.2513152360916138
1685474506836870000,18.070869873046874,9.704523086547852,-0.012200850993394852,1.2116767168045044
1685474506856870000,18.090869873046874,9.70579719543457,-0.01583046093583107,1.1652483940124512
1685474506876870000,18.110869873046877,9.711169242858887,-0.020341137424111366,1.1298428773880005
1685474506896870000,18.130869873046876,9.729623794555664,-0.011367670260369778,1.0805511474609375
1685474506916870000,18.150869873046876,9.717968940734863,-0.011013327166438103,1.0381544828414917
1685474506936870000,18.170869873046875,9.754849433898926,-0.0063494229689240456,0.9988992214202881
1685474506956870000,18.190869873046875,9.752971649169922,-0.020015526562929153,0.8989461064338684
1685474506976870000,18.210869873046875,9.771427154541016,-0.02163400687277317,0.8483327031135559
1685474506996870000,18.230869873046874,9.748414039611816,0.000488417164888233,0.7655411958694458
1685474507016870000,18.250869873046874,9.746747016906738,-0.01317768543958664,0.7044411897659302
1685474507036870000,18.270869873046873,9.789010047912598,-0.008197746239602566,0.5932161211967468
1685474507056870000,18.290869873046876,9.7865571975708,-0.00329442135989666,0.49626055359840393
1685474507076870000,18.310869873046876,9.796134948730469,0.008360552601516247,0.40493613481521606
1685474507096870000,18.330869873046876,9.78010368347168,-0.005257667042315006,0.2762717306613922
1685474507116870000,18.350869873046875,9.804619789123535,-0.014413094148039818,0.1324472278356552
1685474507136870000,18.370869873046875,9.765106201171875,-0.002269703196361661,0.038565799593925476
1685474507156870000,18.390869873046874,9.78219985961914,0.006052541546523571,0.0692020058631897
1685474507176870000,18.410869873046874,9.783637046813965,-0.008896853774785995,0.09613198786973953
1685474507196871400,18.430871337890625,9.815068244934082,-0.001618480309844017,0.0757238119840622
1685474507216870000,18.450869873046877,9.786730766296387,-0.006454767659306526,0.06145436689257622
1685474507236870000,18.470869873046876,9.783426284790039,0.0015801731497049332,0.043421242386102676
1685474507256870000,18.490869873046876,9.80118179321289,-0.004797980189323425,0.04458961263298988
1685474507276870000,18.510869873046875,9.800530433654785,0.002317587146535516,0.03588429465889931
1685474507296870000,18.530869873046875,9.778685569763184,-0.010314221493899822,0.0266618300229311
1685474507316870000,18.550869873046874,9.801344871520996,0.0020302829798310995,0.028299463912844658
1685474507336870000,18.570869873046874,9.784422874450684,-0.00419464148581028,0.02094447799026966
1685474507356870000,18.590869873046874,9.796891212463379,0.004395754542201757,0.005353434942662716
1685474507376870000,18.610869873046877,9.789067268371582,-0.00031603462412022054,0.011405977420508862
1685474507396870000,18.630869873046876,9.791671752929688,-0.0026527754962444305,0.020887015387415886
1685474507416870000,18.650869873046876,9.79704475402832,0.0067995330318808556,0.031038431450724602
1685474507436870000,18.670869873046875,9.783082008361816,-0.0031028855592012405,0.011961431242525578
1685474507456870000,18.690869873046875,9.775142669677734,-0.01333091501146555,0.02329079434275627
1685474507476870000,18.710869873046875,9.783072471618652,-0.006014234386384487,0.01219127420336008
1685474507496870000,18.730869873046874,9.78646183013916,-0.003993528429418802,0.013656526803970337
1685474507516870000,18.750869873046874,9.790925025939941,-0.0015801731497049332,0.01058237161487341
1685474507536870000,18.770869873046873,9.78712272644043,0.001158793573267758,0.010189722292125225
1685474507556870000,18.790869873046876,9.794602394104004,0.008274360559880733,0.007967903278768063
1685474507576870000,18.810869873046876,9.798912048339844,-0.002403778489679098,0.016433799639344215
1685474507596870000,18.830869873046876,9.776320457458496,-0.013014880008995533,0.009270348586142063
1685474507616870000,18.850869873046875,9.789593696594238,-0.001158793573267758,0.013464991003274918
1685474507636870000,18.870869873046875,9.791863441467285,0.0026527754962444305,0.014403517358005047
1685474507656870000,18.890869873046874,9.779644012451172,-0.005228936672210693,0.010754753835499287
1685474507676870000,18.910869873046874,9.775947570800781,0.006052541546523571,0.008188169449567795
1685474507696870000,18.930869873046873,9.787755012512207,-0.00913627352565527,0.011961431242525578
1685474507716870000,18.950869873046877,9.774462699890137,0.002461239229887724,0.01444182451814413
1685474507736870000,18.970869873046876,9.781166076660156,-0.0017334020230919123,0.004223371855914593
1685474507756870000,18.990869873046876,9.788971900939941,0.0025282769929617643,0.0025282769929617643
1685474507776870000,19.010869873046875,9.780917167663574,-0.004807556979358196,0.009557653218507767
1685474507796870000,19.030869873046875,9.793329238891602,-0.0019728222396224737,0.01739148050546646
1685474507816870000,19.050869873046874,9.785447120666504,0.007316680625081062,-0.0026815058663487434
1685474507836870000,19.070869873046874,9.790905952453613,0.0015610195696353912,-0.001283292076550424
1685474507856870000,19.090869873046874,9.771493911743164,0.003667917102575302,0.002834734972566366
1685474507876870000,19.110869873046877,9.788415908813477,-0.0009385270532220602,0.004118026699870825
1685474507896870000,19.130869873046876,9.788664817810059,-0.0005171475349925458,0.013541605323553085
1685474507916870000,19.150869873046876,9.788578987121582,-0.010716446675360203,0.013129801489412785
1685474507936870000,19.170869873046875,9.780074119567871,-0.006761225871741772,-0.0037636850029230118
1685474507956870000,19.190869873046875,9.791624069213867,0.008762778714299202,0.005228936672210693
1685474507976870000,19.210869873046875,9.797992706298828,-0.004855440929532051,0.008580818772315979
1685474507996870000,19.230869873046874,9.785591125488281,0.010975020006299019,0.018119318410754204
1685474508016870000,19.250869873046874,9.793903350830078,-0.006761225871741772,0.00833182130008936
1685474508036870000,19.270869873046873,9.782305717468262,0.0006224924582056701,0.01616564951837063
1685474508056870000,19.290869873046876,9.796298027038574,-0.011348516680300236,0.006876147352159023
1685474508076870000,19.310869873046876,9.787065505981445,0.011367670260369778,-0.0012545617064461112
1685474508096871400,19.330871337890624,9.779595375061035,-0.0016759412828832865,0.00015322890249080956
1685474508116871400,19.350871337890624,9.769779205322266,-0.0004405330982990563,0.007307103835046291
1685474508136871400,19.370871337890627,9.788780212402344,0.008015787228941917,0.0037636850029230118
1685474508156870000,19.390869873046874,9.781501770019531,0.009825803339481354,0.006167463958263397
1685474508176871400,19.410871337890626,9.775323867797852,0.0009864111198112369,-0.0019632454495877028
1685474508196871400,19.430871337890625,9.787631034851074,-0.004462792072445154,0.008169015869498253
1685474508216870000,19.450869873046877,9.799141883850098,-0.0111378263682127,0.008082824759185314
1685474508236870000,19.470869873046876,9.777316093444824,-0.0024803930427879095,-0.009988609701395035
1685474508256870000,19.490869873046876,9.789852142333984,-0.004778826609253883,-0.0016950948629528284
1685474508276870000,19.510869873046875,9.769444465637207,-0.001944091753102839,0.007738059852272272
1685474508296870000,19.530869873046875,9.782631874084473,-0.0027868507895618677,-0.004338293336331844
1685474508316870000,19.550869873046874,9.781261444091797,0.0035529951564967632,0.017707515507936478
1685474508336870000,19.570869873046874,9.772135734558105,0.005315127782523632,0.0171807911247015
1685474508356870000,19.590869873046874,9.78669261932373,-0.0034476504661142826,-0.00004788403384736739
1685474508376870000,19.610869873046877,9.800243377685547,-0.007000645622611046,0.000488417164888233
1685474508396870000,19.630869873046876,9.796212196350098,0.004443638492375612,-0.010151415131986141
1685474508416870000,19.650869873046876,9.755768775939941,0.00771890627220273,-0.014211980625987053
1685474508436870000,19.670869873046875,9.777613639831543,-0.0023654713295400143,-0.0018100164597854018
1685474508456870000,19.690869873046875,9.781060218811035,-0.009998186491429806,0.01158793643116951
1685474508476870000,19.710869873046875,9.776033401489258,-0.006100425496697426,0.0034763808362185955
1685474508496870000,19.730869873046874,9.796154022216797,-0.0011779472697526217,0.005123591516166925
1685474508516870000,19.750869873046874,9.77615737915039,0.004778826609253883,0.0071826050989329815
1685474508536870000,19.770869873046873,9.785676956176758,-0.0030071171931922436,-0.008370129391551018
1685474508556870000,19.790869873046876,9.809685707092285,-0.021432893350720406,0.02066675014793873
1685474508576870000,19.810869873046876,9.774721145629883,0.01902911625802517,0.0003447650233283639
1685474508596870000,19.830869873046876,9.777460098266602,0.005813121795654297,-0.0008619126165285707
1685474508616870000,19.850869873046875,9.782774925231934,0.00494163203984499,-0.0009481038432568312
1685474508636870000,19.870869873046875,9.786127090454102,0.010553641244769096,-0.0023750481195747852
1685474508656870000,19.890869873046874,9.78809928894043,-0.0003447650233283639,-0.0015418659895658493
1685474508676870000,19.910869873046874,9.802177429199219,-0.009203311055898666,0.00039264908991754055
1685474508696870000,19.930869873046873,9.789910316467285,-0.007910442538559437,-0.01458547729998827
1685474508716870000,19.950869873046877,9.799468040466309,-0.005698200315237045,-0.005037400405853987
1685474508736870000,19.970869873046876,9.795042991638184,0.015303737483918667,-0.009950302541255951
1685474508756870000,19.990869873046876,9.77033519744873,-0.008159439079463482,-0.004041412379592657
1685474508776870000,20.010869873046875,9.774367332458496,0.007699752692133188,-0.002892195712774992
1685474508796870000,20.030869873046875,9.78908634185791,-0.005985504016280174,-0.0018483237363398075
1685474508816870000,20.050869873046874,9.788924217224121,-0.0010438719764351845,0.0020781669300049543
1685474508836870000,20.070869873046874,9.789938926696777,-0.010630255565047264,-0.023204602301120758
1685474508856870000,20.090869873046874,9.79552173614502,-0.005889736115932465,-0.010448296554386616
1685474508876870000,20.110869873046877,9.780141830444336,0.009174580685794353,-0.005975927226245403
1685474508896870000,20.130869873046876,9.778149604797363,-0.007402871735394001,-0.006684611551463604
1685474508916870000,20.150869873046876,9.78658676147461,0.003246537409722805,0.0051140147261321545
1685474508936870000,20.170869873046875,9.78441333770752,-0.012717999517917633,-0.012861651368439198
1685474508956870000,20.190869873046875,9.784250259399414,0.00020111293997615576,0.0031124623492360115
1685474508976870000,20.210869873046875,9.789057731628418,0.009174580685794353,-0.008427590131759644
1685474508996871400,20.230871337890626,9.774606704711914,-0.015045163221657276,-0.01914403773844242
1685474509016870000,20.250869873046874,9.789067268371582,0.005707777105271816,-0.013953407295048237
1685474509036870000,20.270869873046873,9.79907512664795,0.019900605082511902,-0.004185064695775509
1685474509056870000,20.290869873046876,9.779155731201172,0.0018962076865136623,0.0006512228865176439
1685474509076870000,20.310869873046876,9.78249740600586,-0.013110647909343243,0.002317587146535516
1685474509096870000,20.330869873046876,9.798932075500488,0.019891027361154556,0.0018483237363398075
1685474509116870000,20.350869873046875,9.790254592895508,-0.006186617538332939,-0.009423578158020973
1685474509136870000,20.370869873046875,9.77366828918457,0.009662997908890247,0.009509769268333912
1685474509156871400,20.390871337890626,9.796326637268066,-0.010026916861534119,-0.004185064695775509
1685474509176871400,20.410871337890626,9.788741111755371,0.0033231519628316164,-0.011377247050404549
1685474509196870000,20.430869873046873,9.77823543548584,-0.007891288958489895,-0.0019919758196920156
1685474509216870000,20.450869873046877,9.778159141540527,-0.00242293206974864,0.0012258312199264765
1685474509236870000,20.470869873046876,9.792859077453613,0.0024899698328226805,-0.009902418591082096
1685474509256870000,20.490869873046876,9.78565788269043,0.002920926082879305,-0.01791820488870144
1685474509276870000,20.510869873046875,9.775640487670898,-0.00010534487955737859,0.009308655746281147
1685474509296870000,20.530869873046875,9.779135704040527,0.0019632454495877028,-0.0130914943292737
1685474509316870000,20.550869873046874,9.785686492919922,0.011750741861760616,-0.01732444390654564
1685474509336870000,20.570869873046874,9.791547775268555,-0.004989516455680132,-0.010170568712055683
1685474509356870000,20.590869873046874,9.792036056518555,0.012057199142873287,-0.005276820622384548
1685474509376870000,20.610869873046877,9.790120124816895,0.0013694833032786846,-0.0043670241720974445
1685474509396870000,20.630869873046876,9.793960571289062,0.012947842478752136,-0.01288080494850874
1685474509416870000,20.650869873046876,9.795618057250977,-0.006617573089897633,-0.020954053848981857
1685474509436870000,20.670869873046875,9.790599822998047,-0.003390189725905657,-0.0010726023465394974
1685474509456870000,20.690869873046875,9.786127090454102,-0.0004022258799523115,0.003236960619688034
1685474509476870000,20.710869873046875,9.796862602233887,0.005679046735167503,-0.019776105880737305
1685474509496870000,20.730869873046874,9.791547775268555,-0.0014939818065613508,-0.010726023465394974
1685474509516870000,20.750869873046874,9.787649154663086,0.00008619125583209097,-0.0027293898165225983
1685474509536870000,20.770869873046873,9.792036056518555,-0.007776367012411356,-0.009165003895759583
1685474509556870000,20.790869873046876,9.802972793579102,0.006636727135628462,-0.0018579005263745785
1685474509576870000,20.810869873046876,9.779183387756348,-0.020657172426581383,0.0034380736760795116
1685474509596870000,20.830869873046876,9.439245223999023,0.02851015515625477,0.12535081803798676
1685474509616870000,20.850869873046875,9.811370849609375,0.001637633889913559,-0.008916007354855537
1685474509636870000,20.870869873046875,9.800482749938965,0.012871228158473969,-0.0026431987062096596
1685474509656870000,20.890869873046874,9.797351837158203,-0.0006895300466567278,-0.0028155811596661806
1685474509676870000,20.910869873046874,9.769376754760742,0.016385916620492935,-0.009327810257673264
1685474509696870000,20.930869873046873,9.76587200164795,-0.0013120225630700588,-0.0051906295120716095
1685474509716871400,20.950871337890625,9.789460182189941,0.0007182605331763625,0.013350068591535091
1685474509736870000,20.970869873046876,9.788022994995117,0.0071059903129935265,-0.0018962076865136623
1685474509756870000,20.990869873046876,9.787447929382324,-0.010275913402438164,-0.004481945652514696
1685474509776870000,21.010869873046875,9.790024757385254,-0.004060565959662199,-0.0072783734649419785
1685474509796870000,21.030869873046875,9.794957160949707,-0.004596867132931948,-0.002106897532939911
1685474509816870000,21.050869873046874,9.798317909240723,0.00804451759904623,-0.0059280432760715485
1685474509836870000,21.070869873046874,9.796201705932617,-0.01159751322120428,-0.006770802661776543
1685474509856870000,21.090869873046874,9.785513877868652,0.0046543278731405735,0.0031220391392707825
1685474509876870000,21.110869873046877,9.788626670837402,0.00838928297162056,-0.00242293206974864
1685474509896870000,21.130869873046876,9.772135734558105,0.009433154948055744,-0.013733141124248505
1685474509916870000,21.150869873046876,9.784518241882324,0.00012449848873075098,0.000967257481534034
1685474509936870000,21.170869873046875,9.794181823730469,0.0007948749698698521,-0.0027006594464182854
1685474509956870000,21.190869873046875,9.779059410095215,-0.0018195933662354946,-0.011530475690960884
1685474509976871400,21.210871337890627,9.79961109161377,-0.0016950948629528284,0.004817133769392967
1685474509996870000,21.230869873046874,9.789076805114746,-0.007316680625081062,-0.01663491316139698
1685474510016870000,21.250869873046874,9.79033088684082,-0.020034680142998695,0.002317587146535516
1685474510036870000,21.270869873046873,9.777527809143066,0.0034955344162881374,0.005707777105271816
1685474510056870000,21.290869873046876,9.785408973693848,0.01317768543958664,-0.01238281186670065
1685474510076871400,21.310871337890624,9.792265892028809,0.004596867132931948,-0.01139640063047409
1685474510096870000,21.330869873046876,9.794219970703125,-0.0030358475632965565,-0.01518881507217884
1685474510116870000,21.350869873046875,9.79531192779541,0.003351882565766573,-0.0107834842056036
1685474510136870000,21.370869873046875,9.785120964050293,-0.010745177045464516,-0.0020494365599006414
1685474510156870000,21.390869873046874,9.804275512695312,-0.005363011732697487,0.0020207061897963285
1685474510176870000,21.410869873046874,9.769693374633789,0.006780379451811314,-0.00022026654914952815
