time,seconds_elapsed,z,y,x
1685475373992727300,0.172727294921875,0.00041887903353199363,-0.00045378561480902135,-0.00022689280740451068
1685475374017722600,0.19772265625,0.0003316125657875091,0.000017453292457503267,0.0008028514566831291
1685475374037722600,0.21772265625,0.00008726646046852693,-0.001658062799833715,0.0008203047327697277
1685475374057722600,0.23772265625,0.00043633230961859226,-0.00020943951676599681,0.0006108652451075613
1685475374077722600,0.25772265625,-0.00027925267932005227,-0.001343903481028974,0.0005235987482592463
1685475374097722600,0.27772265625,-0.00019198621157556772,-0.0013264502631500363,0.000715585018042475
1685475374117722600,0.29772265625,0.00015707963029854,-0.001518436474725604,0.000715585018042475
1685475374137721000,0.31772119140625,-0.00015707963029854,-0.0012740903766825795,0.0006457717972807586
1685475374157721000,0.33772119140625,-0.00008726646046852693,-0.0005934119690209627,0.0014137167017906904
1685475374177721000,0.35772119140625,-0.00029670598451048136,-0.0018151424592360854,0.0003490658418741077
1685475374197722600,0.37772265625,0.00019198621157556772,-0.0015533430268988013,0.0010821041651070118
1685475374217721000,0.39772119140625,0.00003490658491500653,-0.0024260077625513077,0.0010471974965184927
1685475374237721000,0.41772119140625,-0.00010471975838299841,-0.0020943949930369854,-0.00006981316983001307
1685475374257721000,0.43772119140625,0.000017453292457503267,-0.001658062799833715,0.001483529806137085
1685475374277721000,0.45772119140625,0.00012217304902151227,-0.001658062799833715,0.0031066860537976027
1685475374297721000,0.47772119140625,0.00019198621157556772,-0.0018500490114092827,0.0006806784076616168
1685475374317721000,0.49772119140625,0.000017453292457503267,-0.0007679448463022709,0.00041887903353199363
1685475374337721000,0.51772119140625,0.00008726646046852693,-0.00045378561480902135,0.0025656339712440968
1685475374357721000,0.53772119140625,-0.00015707963029854,-0.001117010717280209,0.0021118484437465668
1685475374377721000,0.55772119140625,-0.00029670598451048136,-0.0018675023457035422,-0.0008552113431505859
1685475374397721000,0.57772119140625,0,-0.001343903481028974,0.0006981316837482154
1685475374417721000,0.59772119140625,-0.0007679448463022709,-0.0019373154500499368,-0.0006981316837482154
1685475374437721000,0.61772119140625,0.00003490658491500653,-0.0012915435945615172,0.0013788101496174932
1685475374457721000,0.63772119140625,0.00041887903353199363,-0.0013962633674964309,0.0003665191470645368
1685475374477721000,0.65772119140625,-0.000715585018042475,-0.0006806784076616168,0.0008028514566831291
1685475374497721000,0.67772119140625,0.00015707963029854,-0.0006108652451075613,0.0013788101496174932
1685475374517721000,0.69772119140625,0.00012217304902151227,-0.0007330382941290736,0.0015358896926045418
1685475374537721000,0.71772119140625,-0.000017453292457503267,-0.0012915435945615172,0.0012391837080940604
1685475374557721000,0.73772119140625,0.00013962633966002613,-0.0016929693520069122,0.0014137167017906904
1685475374577721000,0.75772119140625,0.0003316125657875091,-0.001029744278639555,0.0006981316837482154
1685475374597721000,0.77772119140625,0.00045378561480902135,-0.0009948377264663577,0.0016057029133662581
1685475374617721000,0.79772119140625,-0.00043633230961859226,-0.0019373154500499368,-0.00012217304902151227
1685475374637722600,0.81772265625,-0.00020943951676599681,-0.0014137167017906904,0.0017802357906475663
1685475374657721000,0.83772119140625,0.00031415926059708,-0.003036872949451208,0.0006632251315750182
1685475374677721000,0.85772119140625,-0.00010471975838299841,-0.0016231562476605177,0.0005410520825535059
1685475374697721000,0.87772119140625,0.00010471975838299841,-0.00094247778179124,0.001029744278639555
1685475374717721000,0.89772119140625,0.0003665191470645368,-0.0020420351065695286,-0.00031415926059708
1685475374737721000,0.91772119140625,-0.00010471975838299841,-0.0013613568153232336,0.0010646508308127522
1685475374757721000,0.93772119140625,0.00019198621157556772,-0.002373647876083851,-0.00003490658491500653
1685475374777721000,0.95772119140625,0.000715585018042475,-0.0013962633674964309,0.001518436474725604
1685475374797721000,0.97772119140625,0.00012217304902151227,-0.0005759586347267032,0.0011344640515744686
1685475374817721000,0.99772119140625,-0.0005410520825535059,-0.0013613568153232336,0.000715585018042475
1685475374837721000,1.01772119140625,0,-0.001343903481028974,0.00040142572834156454
1685475374857721000,1.03772119140625,-0.00024434609804302454,-0.0018325956771150231,0.0009250245057046413
1685475374877721000,1.05772119140625,0.00024434609804302454,-0.0015358896926045418,0.0006457717972807586
1685475374897722600,1.07772265625,0.00031415926059708,-0.0021816615480929613,0.0006457717972807586
1685475374917721000,1.09772119140625,0.00040142572834156454,-0.00251327408477664,-0.00040142572834156454
1685475374937721000,1.11772119140625,0.00017453292093705386,-0.0010646508308127522,0.0012740903766825795
1685475374957721000,1.13772119140625,0.00040142572834156454,-0.0010646508308127522,0.0012217304902151227
1685475374977721000,1.15772119140625,-0.000017453292457503267,-0.0012042771559208632,-0.00027925267932005227
1685475374997721000,1.17772119140625,-0.00043633230961859226,-0.0021293016616255045,0.00040142572834156454
1685475375017721000,1.19772119140625,0.0003665191470645368,-0.001117010717280209,-0.0003665191470645368
1685475375037721000,1.21772119140625,0.00041887903353199363,-0.00043633230961859226,0.0005934119690209627
1685475375057721000,1.23772119140625,-0.00020943951676599681,-0.0018151424592360854,0.00027925267932005227
1685475375077721000,1.25772119140625,0.00010471975838299841,-0.0018675023457035422,0.0006806784076616168
1685475375097721000,1.27772119140625,0.00041887903353199363,-0.0010122909443452954,0.0005759586347267032
1685475375117721000,1.29772119140625,-0.0003316125657875091,-0.0013613568153232336,0.00041887903353199363
1685475375137721000,1.31772119140625,-0.00013962633966002613,-0.0007679448463022709,0.00029670598451048136
1685475375157721000,1.33772119140625,0.00041887903353199363,-0.0017976891249418259,0.0005410520825535059
1685475375177721000,1.35772119140625,-0.00024434609804302454,-0.0010995573829859495,0.0015707963611930609
1685475375197721000,1.37772119140625,-0.0003316125657875091,-0.001483529806137085,0.00020943951676599681
1685475375217722600,1.39772265625,-0.00019198621157556772,-0.0010646508308127522,0.0010646508308127522
1685475375237721000,1.41772119140625,-0.00040142572834156454,-0.0017802357906475663,0.0005934119690209627
1685475375257721000,1.43772119140625,0.00020943951676599681,-0.0024958208668977022,0.0005759586347267032
1685475375277721000,1.45772119140625,-0.0007679448463022709,-0.0013962633674964309,0.0015009831404313445
1685475375297721000,1.47772119140625,-0.00043633230961859226,-0.0011519172694534063,0.000715585018042475
1685475375317721000,1.49772119140625,-0.0012391837080940604,-0.0013613568153232336,0.0012915435945615172
1685475375337721000,1.51772119140625,0.0004886921960860491,-0.0008028514566831291,0.00022689280740451068
1685475375357721000,1.53772119140625,0.00041887903353199363,-0.0019896754529327154,-0.0006632251315750182
1685475375377721000,1.55772119140625,0.0002617993741296232,-0.0010471974965184927,0.0006806784076616168
1685475375397721000,1.57772119140625,-0.00006981316983001307,-0.0015707963611930609,0.0005585053586401045
1685475375417721000,1.59772119140625,0.00040142572834156454,-0.0015358896926045418,0.00043633230961859226
1685475375437721000,1.61772119140625,0.0003316125657875091,-0.00024434609804302454,0.00251327408477664
1685475375457721000,1.63772119140625,-0.00008726646046852693,-0.0011519172694534063,0.0021816615480929613
1685475375477722600,1.65772265625,0.00038397242315113544,-0.0013089969288557768,0.0007679448463022709
1685475375497721000,1.67772119140625,0.00040142572834156454,-0.002478367416188121,0.00012217304902151227
1685475375517721000,1.69772119140625,-0.00015707963029854,-0.0006108652451075613,0.0015707963611930609
1685475375537721000,1.71772119140625,0.0005061454721726477,-0.0005410520825535059,0.0012217304902151227
1685475375557721000,1.73772119140625,-0.00031415926059708,-0.00062831852119416,0.0008726646192371845
1685475375577721000,1.75772119140625,0.00045378561480902135,-0.002548180753365159,0.00047123889089562
1685475375597721000,1.77772119140625,0.00031415926059708,-0.0017104226863011718,0.00041887903353199363
1685475375617721000,1.79772119140625,0.00017453292093705386,-0.0007330382941290736,0.0009599310578778386
1685475375637721000,1.81772119140625,-0.00015707963029854,-0.00125663704238832,0.0013089969288557768
1685475375657721000,1.83772119140625,-0.00029670598451048136,-0.001483529806137085,0.0010995573829859495
1685475375677721000,1.85772119140625,0.00017453292093705386,-0.00143117003608495,0.00012217304902151227
1685475375697721000,1.87772119140625,-0.00029670598451048136,-0.0012042771559208632,0.001029744278639555
1685475375717721000,1.89772119140625,-0.00045378561480902135,-0.0016231562476605177,0.00013962633966002613
1685475375737721000,1.91772119140625,0.0002617993741296232,-0.0010471974965184927,-0.00003490658491500653
1685475375757721000,1.93772119140625,-0.0006108652451075613,-0.0008028514566831291,0.001343903481028974
1685475375777721000,1.95772119140625,0.00041887903353199363,-0.0016755161341279745,0.0014486232539638877
1685475375797721000,1.97772119140625,0.00043633230961859226,-0.001483529806137085,0.0005759586347267032
1685475375817721000,1.99772119140625,-0.00027925267932005227,-0.0015707963611930609,0.0011868239380419254
1685475375837721000,2.01772119140625,-0.0003665191470645368,-0.0012217304902151227,0.0010471974965184927
1685475375857721000,2.03772119140625,-0.00008726646046852693,-0.0015707963611930609,-0.00010471975838299841
1685475375877721000,2.05772119140625,0.0005759586347267032,-0.0013089969288557768,0.0006457717972807586
1685475375897721000,2.07772119140625,-0.00024434609804302454,-0.0014137167017906904,0.00022689280740451068
1685475375917721000,2.09772119140625,-0.00031415926059708,-0.001343903481028974,-0.00012217304902151227
1685475375937721000,2.11772119140625,0.00013962633966002613,-0.00027925267932005227,0.00013962633966002613
1685475375957721000,2.13772119140625,-0.00038397242315113544,-0.0002617993741296232,0.0005585053586401045
1685475375977721000,2.15772119140625,-0.00027925267932005227,-0.0010821041651070118,0.0006981316837482154
1685475375997721000,2.17772119140625,0.00031415926059708,0.0004886921960860491,-0.0016406094655394554
1685475376017721000,2.19772119140625,-0.000017453292457503267,-0.0005934119690209627,0.0006108652451075613
1685475376037721000,2.21772119140625,0.00008726646046852693,-0.0005410520825535059,0.00038397242315113544
1685475376057721000,2.23772119140625,-0.00019198621157556772,0.00045378561480902135,0.0019024088978767395
1685475376077721000,2.25772119140625,0.0003665191470645368,-0.0008901178953237832,-0.00031415926059708
1685475376097721000,2.27772119140625,0.00013962633966002613,0.0005235987482592463,0.0007504915702156723
1685475376117721000,2.29772119140625,-0.00027925267932005227,0.00029670598451048136,0.0009948377264663577
1685475376137721000,2.31772119140625,0.000017453292457503267,0.000017453292457503267,0.0008901178953237832
1685475376157721000,2.33772119140625,-0.00029670598451048136,0.0002617993741296232,0.0009948377264663577
1685475376177721000,2.35772119140625,-0.00015707963029854,-0.00043633230961859226,0.0009948377264663577
1685475376197721000,2.37772119140625,0.0003316125657875091,-0.0010471974965184927,0.00027925267932005227
1685475376217721000,2.39772119140625,-0.00027925267932005227,0.0003316125657875091,0.0010646508308127522
1685475376237721000,2.41772119140625,-0.00010471975838299841,-0.001029744278639555,0.0005585053586401045
1685475376257721000,2.43772119140625,0.0003665191470645368,0.00041887903353199363,0.0006806784076616168
1685475376277721000,2.45772119140625,0.00015707963029854,-0.0007330382941290736,0.0011868239380419254
1685475376297721000,2.47772119140625,-0.000052359879191499203,-0.00010471975838299841,0.00010471975838299841
1685475376317721000,2.49772119140625,0.000052359879191499203,0.0010995573829859495,0.0023038345389068127
1685475376337721000,2.51772119140625,-0.00020943951676599681,0,-0.00040142572834156454
1685475376357721000,2.53772119140625,-0.00013962633966002613,0.00008726646046852693,0.0006108652451075613
1685475376377721000,2.55772119140625,0.0010122909443452954,0.00013962633966002613,0.0009773843921720982
1685475376397721000,2.57772119140625,0.0008377580670639873,-0.000017453292457503267,-0.000017453292457503267
1685475376417721000,2.59772119140625,-0.00029670598451048136,0.00094247778179124,0.0007679448463022709
1685475376437721000,2.61772119140625,0.00038397242315113544,-0.00012217304902151227,0.00043633230961859226
1685475376457721000,2.63772119140625,0.00006981316983001307,0.0003490658418741077,0.0018151424592360854
1685475376477721000,2.65772119140625,-0.00013962633966002613,-0.0007504915702156723,0.00031415926059708
1685475376497721000,2.67772119140625,-0.00012217304902151227,0.00008726646046852693,0.0011868239380419254
1685475376517721000,2.69772119140625,-0.00010471975838299841,-0.0005061454721726477,-0.00041887903353199363
1685475376537721000,2.71772119140625,0.00043633230961859226,-0.0017278759041801095,-0.0005061454721726477
1685475376557721000,2.73772119140625,-0.0006108652451075613,0.000017453292457503267,0.000052359879191499203
1685475376577721000,2.75772119140625,0.0006632251315750182,0.0003665191470645368,0.0012391837080940604
1685475376597721000,2.77772119140625,0.0005061454721726477,0.0010122909443452954,0.0012391837080940604
1685475376617721000,2.79772119140625,-0.000017453292457503267,-0.00045378561480902135,0.0014137167017906904
1685475376637721000,2.81772119140625,0.00022689280740451068,-0.00015707963029854,0.00038397242315113544
1685475376657721000,2.83772119140625,-0.00062831852119416,-0.00047123889089562,0.0012391837080940604
1685475376677721000,2.85772119140625,-0.0007504915702156723,-0.0006632251315750182,0.0005934119690209627
1685475376697721000,2.87772119140625,-0.00017453292093705386,0.00029670598451048136,0.00013962633966002613
1685475376717721000,2.89772119140625,-0.0007504915702156723,-0.00040142572834156454,0.0003316125657875091
1685475376737721000,2.91772119140625,-0.00029670598451048136,-0.0006632251315750182,0.00024434609804302454
1685475376757721000,2.93772119140625,0.00003490658491500653,-0.00031415926059708,0.0003490658418741077
1685475376777721000,2.95772119140625,0.00038397242315113544,0.0003490658418741077,0.0008726646192371845
1685475376797721000,2.97772119140625,0.00038397242315113544,-0.0007504915702156723,-0.00006981316983001307
1685475376817721000,2.99772119140625,0.00024434609804302454,0.00045378561480902135,0
1685475376837721000,3.01772119140625,0.0002617993741296232,0,0.00047123889089562
1685475376857721000,3.03772119140625,-0.0008726646192371845,-0.00029670598451048136,0.00062831852119416
1685475376877721000,3.05772119140625,0.00013962633966002613,0.0006981316837482154,0.0007679448463022709
1685475376897721000,3.07772119140625,0.0003665191470645368,-0.0004886921960860491,0.00062831852119416
1685475376917721000,3.09772119140625,0.00015707963029854,-0.0015009831404313445,0.00041887903353199363
1685475376937721000,3.11772119140625,0.00043633230961859226,-0.00010471975838299841,0.0002617993741296232
1685475376957721000,3.13772119140625,-0.0006806784076616168,-0.0002617993741296232,0.00022689280740451068
1685475376977721000,3.15772119140625,0.00006981316983001307,0.00012217304902151227,0.0003665191470645368
1685475376997721000,3.17772119140625,0.00031415926059708,0.00027925267932005227,0.0003665191470645368
1685475377017721000,3.19772119140625,-0.000052359879191499203,0,0.00031415926059708
1685475377037721000,3.21772119140625,0.00010471975838299841,-0.00041887903353199363,0.0005061454721726477
1685475377057721000,3.23772119140625,0.00038397242315113544,-0.00024434609804302454,0.0008552113431505859
1685475377077721000,3.25772119140625,0.0003316125657875091,0.0003316125657875091,0.0008901178953237832
1685475377097722600,3.27772265625,0.0005061454721726477,0.0005410520825535059,0.0005235987482592463
1685475377117721000,3.29772119140625,0.0003316125657875091,-0.0016057029133662581,0.000052359879191499203
1685475377137721000,3.31772119140625,0.000017453292457503267,0.00008726646046852693,0.0009250245057046413
1685475377157721000,3.33772119140625,-0.00003490658491500653,-0.00031415926059708,0.0005061454721726477
1685475377177721000,3.35772119140625,0.00045378561480902135,-0.00022689280740451068,0.00047123889089562
1685475377197721000,3.37772119140625,0.00015707963029854,0.000052359879191499203,0.00125663704238832
1685475377217721000,3.39772119140625,0.0003316125657875091,-0.000017453292457503267,-0.00038397242315113544
1685475377237722600,3.41772265625,0.00040142572834156454,0.00008726646046852693,0.0010646508308127522
1685475377257721000,3.43772119140625,0.00041887903353199363,-0.000052359879191499203,-0.00015707963029854
1685475377277721000,3.45772119140625,-0.00022689280740451068,-0.0017104226863011718,-0.0007330382941290736
1685475377297721000,3.47772119140625,-0.0008203047327697277,-0.0015533430268988013,0.00027925267932005227
1685475377317721000,3.49772119140625,0.00020943951676599681,0.00010471975838299841,0.0003490658418741077
1685475377337721000,3.51772119140625,-0.0008028514566831291,0.00015707963029854,0.0006632251315750182
1685475377357721000,3.53772119140625,0.00003490658491500653,-0.0005585053586401045,0.0008552113431505859
1685475377377721000,3.55772119140625,0.00043633230961859226,0.0006457717972807586,0.00027925267932005227
1685475377397721000,3.57772119140625,0.00024434609804302454,-0.0005235987482592463,0.0005585053586401045
1685475377417721000,3.59772119140625,0.0005759586347267032,0.00017453292093705386,-0.0006632251315750182
1685475377437721000,3.61772119140625,0.000715585018042475,-0.00047123889089562,0.00038397242315113544
1685475377457721000,3.63772119140625,0.00038397242315113544,-0.0007853981805965304,0.00041887903353199363
1685475377477721000,3.65772119140625,-0.00027925267932005227,0.00029670598451048136,0.00094247778179124
1685475377497721000,3.67772119140625,-0.000052359879191499203,0.00031415926059708,0.0008901178953237832
1685475377517721000,3.69772119140625,0.00040142572834156454,-0.000017453292457503267,0.0013089969288557768
1685475377537721000,3.71772119140625,0.00038397242315113544,-0.00020943951676599681,-0.0002617993741296232
1685475377557721000,3.73772119140625,-0.00047123889089562,-0.0007679448463022709,0.00017453292093705386
1685475377577721000,3.75772119140625,-0.00043633230961859226,-0.0009948377264663577,0.0008203047327697277
1685475377597721000,3.77772119140625,0.00015707963029854,0.0005585053586401045,0.0009075712296180427
1685475377617721000,3.79772119140625,0.00029670598451048136,-0.00017453292093705386,0.00013962633966002613
1685475377637721000,3.81772119140625,-0.0003490658418741077,0.0005235987482592463,0.0008377580670639873
1685475377657721000,3.83772119140625,0.00020943951676599681,0.0003490658418741077,0.0025830871891230345
1685475377677721000,3.85772119140625,0.00038397242315113544,-0.00010471975838299841,0.0005759586347267032
1685475377697721000,3.87772119140625,-0.00010471975838299841,-0.00125663704238832,-0.00027925267932005227
1685475377717721000,3.89772119140625,-0.0002617993741296232,-0.00008726646046852693,0.00024434609804302454
1685475377737721000,3.91772119140625,-0.0003316125657875091,-0.00019198621157556772,0.0010471974965184927
1685475377757721000,3.93772119140625,0.00043633230961859226,-0.00024434609804302454,0.002007128670811653
1685475377777721000,3.95772119140625,-0.00008726646046852693,0,0.0014660765882581472
1685475377797721000,3.97772119140625,-0.000052359879191499203,-0.00125663704238832,-0.00020943951676599681
1685475377817721000,3.99772119140625,-0.00031415926059708,-0.00040142572834156454,0.0006457717972807586
1685475377837721000,4.01772119140625,-0.0009773843921720982,-0.0005410520825535059,-0.00012217304902151227
1685475377857721000,4.03772119140625,-0.0010122909443452954,-0.00012217304902151227,0.0007504915702156723
1685475377877721000,4.05772119140625,0.00003490658491500653,-0.0006981316837482154,0.00047123889089562
1685475377897721000,4.07772119140625,0.0004886921960860491,-0.000715585018042475,0.00024434609804302454
1685475377917721000,4.09772119140625,-0.00012217304902151227,-0.00031415926059708,0.0005585053586401045
1685475377937721000,4.11772119140625,0.00031415926059708,-0.0007330382941290736,-0.00027925267932005227
1685475377957721000,4.13772119140625,-0.00012217304902151227,0.00031415926059708,0.001117010717280209
1685475377977721000,4.15772119140625,-0.000052359879191499203,-0.0003665191470645368,0.0002617993741296232
1685475377997721000,4.17772119140625,-0.000017453292457503267,-0.000017453292457503267,-0.00040142572834156454
1685475378017721000,4.19772119140625,0.0017278759041801095,-0.00006981316983001307,0.00010471975838299841
1685475378037721000,4.21772119140625,-0.000017453292457503267,-0.00003490658491500653,-0.0003490658418741077
1685475378057721000,4.23772119140625,-0.0002617993741296232,0.00012217304902151227,0
1685475378077721000,4.25772119140625,0.00031415926059708,-0.0008203047327697277,-0.0015707963611930609
1685475378097721000,4.27772119140625,0.000715585018042475,-0.000052359879191499203,-0.00040142572834156454
1685475378117721000,4.29772119140625,0.0003665191470645368,0.0008028514566831291,0.0005410520825535059
1685475378137721000,4.31772119140625,0.0006806784076616168,-0.0010821041651070118,-0.00012217304902151227
1685475378157721000,4.33772119140625,-0.0003490658418741077,0.00019198621157556772,0.0009599310578778386
1685475378177721000,4.35772119140625,-0.000052359879191499203,0.0005061454721726477,0.0013613568153232336
1685475378197721000,4.37772119140625,0.0005235987482592463,-0.0013089969288557768,0.00027925267932005227
1685475378217721000,4.39772119140625,0.00029670598451048136,-0.0007330382941290736,0.0008726646192371845
1685475378237721000,4.41772119140625,-0.0008028514566831291,-0.0005061454721726477,0.0005585053586401045
1685475378257721000,4.43772119140625,-0.000017453292457503267,-0.00024434609804302454,0
1685475378277721000,4.45772119140625,0,-0.00038397242315113544,-0.0007679448463022709
1685475378297721000,4.47772119140625,-0.0005410520825535059,-0.00022689280740451068,0.00012217304902151227
1685475378317721000,4.49772119140625,0.00038397242315113544,-0.0008028514566831291,0.00062831852119416
1685475378337721000,4.51772119140625,0,-0.0005410520825535059,0.0005759586347267032
1685475378357721000,4.53772119140625,0.0003665191470645368,0.00062831852119416,0.0008028514566831291
1685475378377721000,4.55772119140625,0.0008203047327697277,-0.0010122909443452954,-0.0009599310578778386
1685475378397721000,4.57772119140625,-0.00010471975838299841,-0.00017453292093705386,-0.00019198621157556772
1685475378417721000,4.59772119140625,0.00008726646046852693,0.0007853981805965304,0.0009075712296180427
1685475378437721000,4.61772119140625,0.00038397242315113544,-0.0003316125657875091,0.00027925267932005227
1685475378457721000,4.63772119140625,0.0003490658418741077,-0.00031415926059708,0.0005235987482592463
1685475378477721000,4.65772119140625,-0.00022689280740451068,0.00031415926059708,-0.00027925267932005227
1685475378497721000,4.67772119140625,0.00020943951676599681,0.00029670598451048136,0.00031415926059708
1685475378517721000,4.69772119140625,0.00029670598451048136,0.000017453292457503267,0.00029670598451048136
1685475378537721000,4.71772119140625,0.0002617993741296232,-0.001029744278639555,0.0015009831404313445
1685475378557721000,4.73772119140625,-0.00008726646046852693,0.00013962633966002613,-0.0009075712296180427
1685475378577721000,4.75772119140625,0.00006981316983001307,-0.00020943951676599681,0.0017104226863011718
1685475378597721000,4.77772119140625,0.0005934119690209627,-0.00010471975838299841,0.00031415926059708
1685475378617721000,4.79772119140625,0.00062831852119416,-0.00022689280740451068,0.0005759586347267032
1685475378637721000,4.81772119140625,0.00013962633966002613,-0.00041887903353199363,0.00038397242315113544
1685475378657721000,4.83772119140625,-0.000017453292457503267,-0.00012217304902151227,0.0011344640515744686
1685475378677721000,4.85772119140625,0.00031415926059708,0.00027925267932005227,0.00031415926059708
1685475378697721000,4.87772119140625,-0.0003490658418741077,-0.00015707963029854,-0.00027925267932005227
1685475378717721000,4.89772119140625,-0.0003665191470645368,-0.0013089969288557768,-0.0011344640515744686
1685475378737721000,4.91772119140625,-0.0009250245057046413,0.00003490658491500653,-0.00012217304902151227
1685475378757721000,4.93772119140625,-0.0011868239380419254,-0.00027925267932005227,-0.00017453292093705386
1685475378777721000,4.95772119140625,0.00013962633966002613,-0.0008028514566831291,-0.00017453292093705386
1685475378797721000,4.97772119140625,0.0003490658418741077,0.00008726646046852693,0.00010471975838299841
1685475378817721000,4.99772119140625,-0.00094247778179124,0.0002617993741296232,0.0008901178953237832
1685475378837721000,5.01772119140625,0.00006981316983001307,-0.00031415926059708,0.0005410520825535059
1685475378857721000,5.03772119140625,0.00013962633966002613,-0.00006981316983001307,-0.00040142572834156454
1685475378877721000,5.05772119140625,-0.00040142572834156454,-0.0002617993741296232,0.001343903481028974
1685475378897721000,5.07772119140625,0.00013962633966002613,0.00013962633966002613,0.00022689280740451068
1685475378917722600,5.09772265625,0.00031415926059708,-0.00031415926059708,0.0002617993741296232
1685475378937722600,5.11772265625,-0.00013962633966002613,0.00010471975838299841,-0.0003490658418741077
1685475378957721000,5.13772119140625,-0.00045378561480902135,-0.00094247778179124,-0.0008203047327697277
1685475378977721000,5.15772119140625,0.00024434609804302454,0.00013962633966002613,-0.00017453292093705386
1685475378997721000,5.17772119140625,-0.00041887903353199363,0.00015707963029854,-0.00020943951676599681
1685475379017721000,5.19772119140625,-0.00013962633966002613,0,0.0005410520825535059
1685475379037721000,5.21772119140625,0.0006806784076616168,-0.0007330382941290736,-0.00031415926059708
1685475379057721000,5.23772119140625,0.00041887903353199363,-0.000052359879191499203,-0.00019198621157556772
1685475379077721000,5.25772119140625,0.00022689280740451068,0.0008203047327697277,-0.00006981316983001307
1685475379097721000,5.27772119140625,-0.00019198621157556772,0.00017453292093705386,-0.00008726646046852693
1685475379117721000,5.29772119140625,0.0005410520825535059,-0.0006457717972807586,0.00008726646046852693
1685475379137721000,5.31772119140625,0.00031415926059708,-0.0003316125657875091,-0.00040142572834156454
1685475379157721000,5.33772119140625,0.00006981316983001307,0.0005934119690209627,0.0012391837080940604
1685475379177721000,5.35772119140625,0.00012217304902151227,-0.00008726646046852693,-0.0007330382941290736
1685475379197721000,5.37772119140625,0.000052359879191499203,-0.0003316125657875091,0.0003665191470645368
1685475379217721000,5.39772119140625,-0.0003665191470645368,0.00015707963029854,-0.0003665191470645368
1685475379237721000,5.41772119140625,0.00024434609804302454,0.00027925267932005227,0.00013962633966002613
1685475379257721000,5.43772119140625,-0.00003490658491500653,-0.00008726646046852693,-0.0016406094655394554
1685475379277721000,5.45772119140625,0.00015707963029854,0.00010471975838299841,0.0009948377264663577
1685475379297721000,5.47772119140625,0.000017453292457503267,0.00024434609804302454,-0.0005759586347267032
1685475379317721000,5.49772119140625,0.00019198621157556772,0.00012217304902151227,-0.0007504915702156723
1685475379337721000,5.51772119140625,0.0006457717972807586,0.00022689280740451068,0.0003665191470645368
1685475379357721000,5.53772119140625,-0.0013962633674964309,-0.0003316125657875091,-0.00094247778179124
1685475379377721000,5.55772119140625,0.0002617993741296232,0.000715585018042475,0.0007679448463022709
1685475379397721000,5.57772119140625,-0.0010646508308127522,0.00019198621157556772,0.00015707963029854
1685475379417721000,5.59772119140625,-0.0005585053586401045,0.0005061454721726477,-0.00045378561480902135
1685475379437721000,5.61772119140625,0.0002617993741296232,-0.0008377580670639873,-0.00010471975838299841
1685475379457721000,5.63772119140625,0.00022689280740451068,0.00020943951676599681,-0.0005585053586401045
1685475379477721000,5.65772119140625,0.000715585018042475,-0.00015707963029854,0
1685475379497721000,5.67772119140625,0.00017453292093705386,0.00041887903353199363,0.0005410520825535059
1685475379517721000,5.69772119140625,0.0002617993741296232,-0.0003316125657875091,-0.0005235987482592463
1685475379537721000,5.71772119140625,-0.00029670598451048136,-0.0012042771559208632,-0.0017278759041801095
1685475379557721000,5.73772119140625,-0.0006457717972807586,0,0.00022689280740451068
1685475379577721000,5.75772119140625,0.0003490658418741077,-0.00047123889089562,0.000715585018042475
1685475379597721000,5.77772119140625,0.00031415926059708,0.00017453292093705386,-0.00038397242315113544
1685475379617721000,5.79772119140625,0.00031415926059708,-0.0005061454721726477,-0.00031415926059708
1685475379637721000,5.81772119140625,0.0007330382941290736,-0.0010995573829859495,-0.0009773843921720982
1685475379657721000,5.83772119140625,0.00022689280740451068,0.0008901178953237832,0.00038397242315113544
1685475379677722600,5.85772265625,0.00031415926059708,0.001117010717280209,0.00008726646046852693
1685475379697721000,5.87772119140625,0.0006632251315750182,0.00003490658491500653,0.00019198621157556772
1685475379717721000,5.89772119140625,-0.00013962633966002613,0.00027925267932005227,-0.00015707963029854
1685475379737721000,5.91772119140625,-0.00019198621157556772,-0.00020943951676599681,-0.00010471975838299841
1685475379757721000,5.93772119140625,0.0006457717972807586,-0.00020943951676599681,-0.00047123889089562
1685475379777721000,5.95772119140625,0.00008726646046852693,0.0005235987482592463,-0.0003316125657875091
1685475379797721000,5.97772119140625,-0.00019198621157556772,0.0009250245057046413,0.0006632251315750182
1685475379817721000,5.99772119140625,0.00029670598451048136,-0.00003490658491500653,0.000052359879191499203
1685475379837721000,6.01772119140625,0.00024434609804302454,0.00027925267932005227,-0.00017453292093705386
1685475379857721000,6.03772119140625,-0.00010471975838299841,-0.0003316125657875091,-0.0005410520825535059
1685475379877721000,6.05772119140625,0.00020943951676599681,-0.00015707963029854,0.0007679448463022709
1685475379897721000,6.07772119140625,-0.00040142572834156454,-0.00038397242315113544,-0.001343903481028974
1685475379917721000,6.09772119140625,0.00031415926059708,-0.0006981316837482154,0
1685475379937722600,6.11772265625,0.000052359879191499203,-0.00038397242315113544,-0.0003316125657875091
1685475379957721000,6.13772119140625,-0.0005235987482592463,0.0003316125657875091,0.0004886921960860491
1685475379977722600,6.15772265625,-0.0004886921960860491,-0.0012391837080940604,-0.0004886921960860491
1685475379997722600,6.17772265625,-0.00043633230961859226,0,-0.0003665191470645368
1685475380017721000,6.19772119140625,0,0.00015707963029854,-0.00031415926059708
1685475380037721000,6.21772119140625,0.00031415926059708,0.0003316125657875091,-0.00013962633966002613
1685475380057721000,6.23772119140625,0.000017453292457503267,0.00010471975838299841,-0.00008726646046852693
1685475380077721000,6.25772119140625,0.00027925267932005227,-0.00012217304902151227,-0.0007504915702156723
1685475380097721000,6.27772119140625,0.00031415926059708,-0.0004886921960860491,0.00043633230961859226
1685475380117721000,6.29772119140625,0.0005061454721726477,0.00045378561480902135,-0.00062831852119416
1685475380137721000,6.31772119140625,0.00010471975838299841,0.00022689280740451068,0.00024434609804302454
1685475380157721000,6.33772119140625,-0.00012217304902151227,-0.0005410520825535059,-0.00008726646046852693
1685475380177721000,6.35772119140625,-0.00019198621157556772,-0.00010471975838299841,-0.0008726646192371845
1685475380197721000,6.37772119140625,0.00043633230961859226,0.00019198621157556772,-0.0008901178953237832
1685475380217721000,6.39772119140625,0.00031415926059708,0.0003316125657875091,0.00143117003608495
1685475380237721000,6.41772119140625,-0.00045378561480902135,0.0008377580670639873,0.00031415926059708
1685475380257721000,6.43772119140625,-0.0003490658418741077,0.0011519172694534063,-0.000052359879191499203
1685475380277721000,6.45772119140625,-0.00003490658491500653,0.00024434609804302454,-0.0003316125657875091
1685475380297721000,6.47772119140625,0.00017453292093705386,0.00043633230961859226,-0.0008028514566831291
1685475380317721000,6.49772119140625,0.00031415926059708,0.00027925267932005227,-0.0006806784076616168
1685475380337721000,6.51772119140625,0.00019198621157556772,0.0002617993741296232,0.0011868239380419254
1685475380357721000,6.53772119140625,0.0003665191470645368,0.00027925267932005227,-0.0003665191470645368
1685475380377721000,6.55772119140625,-0.00024434609804302454,-0.00019198621157556772,0.00047123889089562
1685475380397721000,6.57772119140625,-0.00013962633966002613,-0.00015707963029854,0.00027925267932005227
1685475380417721000,6.59772119140625,0.00008726646046852693,-0.0005585053586401045,-0.0003316125657875091
1685475380437721000,6.61772119140625,0.0005759586347267032,-0.0007504915702156723,-0.0006981316837482154
1685475380457721000,6.63772119140625,0.00031415926059708,-0.0007853981805965304,-0.0008377580670639873
1685475380477721000,6.65772119140625,0.00031415926059708,0.00031415926059708,0.000017453292457503267
1685475380497721000,6.67772119140625,-0.00041887903353199363,0.0017104226863011718,0.002809980185702443
1685475380517721000,6.69772119140625,-0.00019198621157556772,-0.0004886921960860491,-0.0010821041651070118
1685475380537721000,6.71772119140625,0.00022689280740451068,-0.00022689280740451068,-0.0006632251315750182
1685475380557722600,6.73772265625,0.0002617993741296232,0.0006457717972807586,0.0017104226863011718
1685475380577721000,6.75772119140625,0.0005759586347267032,-0.00003490658491500653,0
1685475380597722600,6.77772265625,-0.00043633230961859226,0.000052359879191499203,-0.0006632251315750182
1685475380617722600,6.79772265625,-0.0006806784076616168,-0.0013089969288557768,-0.0007679448463022709
1685475380637722600,6.81772265625,-0.00022689280740451068,0.00022689280740451068,0.00008726646046852693
1685475380657721000,6.83772119140625,0.00040142572834156454,0.00062831852119416,-0.00043633230961859226
1685475380677721000,6.85772119140625,0.0006108652451075613,0.00015707963029854,-0.0009599310578778386
1685475380697721000,6.87772119140625,-0.00003490658491500653,-0.0004886921960860491,-0.00047123889089562
1685475380717721000,6.89772119140625,-0.00024434609804302454,0.000715585018042475,0.0007330382941290736
1685475380737721000,6.91772119140625,0.00029670598451048136,-0.0003490658418741077,-0.0007679448463022709
1685475380757721000,6.93772119140625,0.00041887903353199363,-0.00017453292093705386,-0.0011868239380419254
1685475380777721000,6.95772119140625,-0.00038397242315113544,0.00012217304902151227,-0.0008726646192371845
1685475380797721000,6.97772119140625,0.00027925267932005227,0.0005410520825535059,0.00043633230961859226
1685475380817721000,6.99772119140625,0.00043633230961859226,0,0.00003490658491500653
1685475380837721000,7.01772119140625,0.00027925267932005227,0.0002617993741296232,-0.0003665191470645368
1685475380857721000,7.03772119140625,-0.00029670598451048136,-0.001483529806137085,-0.0009250245057046413
1685475380877721000,7.05772119140625,-0.0003665191470645368,-0.000052359879191499203,-0.0003665191470645368
1685475380897721000,7.07772119140625,-0.00027925267932005227,-0.00006981316983001307,0.00020943951676599681
1685475380917721000,7.09772119140625,0.00022689280740451068,-0.00024434609804302454,0.00012217304902151227
1685475380937721000,7.11772119140625,0.00031415926059708,-0.0008901178953237832,-0.0018500490114092827
1685475380957721000,7.13772119140625,0.00031415926059708,0.0008028514566831291,-0.0005061454721726477
1685475380977721000,7.15772119140625,0,-0.00020943951676599681,-0.0006632251315750182
1685475380997721000,7.17772119140625,-0.0006457717972807586,0.0003490658418741077,-0.00012217304902151227
1685475381017721000,7.19772119140625,-0.0005410520825535059,-0.00022689280740451068,-0.000052359879191499203
1685475381037721000,7.21772119140625,0.00094247778179124,0.00022689280740451068,0.0015707963611930609
1685475381057721000,7.23772119140625,-0.00008726646046852693,0.00012217304902151227,-0.00041887903353199363
1685475381077721000,7.25772119140625,0.000017453292457503267,-0.0009773843921720982,-0.00027925267932005227
1685475381097721000,7.27772119140625,-0.00022689280740451068,-0.0009948377264663577,-0.0008028514566831291
1685475381117721000,7.29772119140625,-0.0002617993741296232,0.00020943951676599681,0.000017453292457503267
1685475381137721000,7.31772119140625,-0.0004886921960860491,0.00040142572834156454,-0.0011693706037476659
1685475381157721000,7.33772119140625,0.00031415926059708,0.0005410520825535059,-0.00040142572834156454
1685475381177721000,7.35772119140625,-0.0008203047327697277,-0.00045378561480902135,-0.0011868239380419254
1685475381197721000,7.37772119140625,0.000017453292457503267,0.00008726646046852693,0.0005934119690209627
1685475381217721000,7.39772119140625,0.00027925267932005227,0.00062831852119416,-0.0012391837080940604
1685475381237721000,7.41772119140625,0.00008726646046852693,-0.00038397242315113544,-0.0013264502631500363
1685475381257721000,7.43772119140625,0.00029670598451048136,-0.00045378561480902135,-0.0005759586347267032
1685475381277721000,7.45772119140625,0.00003490658491500653,0,0.00006981316983001307
1685475381297721000,7.47772119140625,0.00006981316983001307,-0.0008552113431505859,-0.0007330382941290736
1685475381317721000,7.49772119140625,0.00015707963029854,-0.00020943951676599681,-0.00013962633966002613
1685475381337721000,7.51772119140625,-0.00003490658491500653,0,-0.00006981316983001307
1685475381357721000,7.53772119140625,0.00043633230961859226,0.0012391837080940604,0.00010471975838299841
1685475381377721000,7.55772119140625,-0.0002617993741296232,0.000052359879191499203,0.00045378561480902135
1685475381397721000,7.57772119140625,-0.00013962633966002613,0.00045378561480902135,0.000017453292457503267
1685475381417721000,7.59772119140625,0.0002617993741296232,0.00015707963029854,-0.0008726646192371845
1685475381437721000,7.61772119140625,0.00040142572834156454,0.00031415926059708,-0.0005061454721726477
1685475381457721000,7.63772119140625,-0.00012217304902151227,0.0007330382941290736,-0.00024434609804302454
1685475381477721000,7.65772119140625,0.00041887903353199363,-0.00006981316983001307,0.00029670598451048136
1685475381497721000,7.67772119140625,-0.00013962633966002613,0.00024434609804302454,0.0007853981805965304
1685475381517721000,7.69772119140625,-0.0005235987482592463,-0.00027925267932005227,-0.0008028514566831291
1685475381537721000,7.71772119140625,0.000017453292457503267,-0.00017453292093705386,0.001029744278639555
1685475381557721000,7.73772119140625,0.00029670598451048136,0.00006981316983001307,-0.00022689280740451068
1685475381577721000,7.75772119140625,-0.000017453292457503267,0.0015533430268988013,-0.0007853981805965304
1685475381597721000,7.77772119140625,-0.00047123889089562,-0.000017453292457503267,-0.00010471975838299841
1685475381617721000,7.79772119140625,-0.0013788101496174932,-0.00010471975838299841,-0.0006457717972807586
1685475381637721000,7.81772119140625,0.00008726646046852693,0.0006806784076616168,0.00017453292093705386
1685475381657721000,7.83772119140625,0.00013962633966002613,-0.0005934119690209627,-0.00062831852119416
1685475381677721000,7.85772119140625,-0.00008726646046852693,0.00040142572834156454,-0.0008377580670639873
1685475381697721000,7.87772119140625,-0.00013962633966002613,0.000017453292457503267,-0.0004886921960860491
1685475381717721000,7.89772119140625,0.0005759586347267032,-0.001343903481028974,-0.0003316125657875091
1685475381737721000,7.91772119140625,-0.0005759586347267032,0.0006108652451075613,0.0005585053586401045
1685475381757721000,7.93772119140625,-0.00012217304902151227,-0.00041887903353199363,-0.0008552113431505859
1685475381777721000,7.95772119140625,0.0005585053586401045,0.00047123889089562,-0.0009250245057046413
1685475381797721000,7.97772119140625,0.00031415926059708,-0.000052359879191499203,0.0003665191470645368
1685475381817721000,7.99772119140625,0.000017453292457503267,-0.0010995573829859495,0.000052359879191499203
1685475381837721000,8.01772119140625,0.00015707963029854,0.00029670598451048136,0.0008552113431505859
1685475381857721000,8.03772119140625,-0.00029670598451048136,-0.0012042771559208632,-0.00045378561480902135
1685475381877721000,8.05772119140625,0.00031415926059708,-0.00022689280740451068,0.0005061454721726477
1685475381897721000,8.07772119140625,-0.0002617993741296232,-0.001029744278639555,-0.00047123889089562
1685475381917721000,8.09772119140625,-0.0004886921960860491,-0.0003316125657875091,-0.0002617993741296232
1685475381937721000,8.11772119140625,0.000017453292457503267,0.0003490658418741077,-0.0005410520825535059
1685475381957721000,8.13772119140625,0.00029670598451048136,0.00027925267932005227,-0.00043633230961859226
1685475381977721000,8.15772119140625,-0.0006632251315750182,0.00003490658491500653,-0.0005585053586401045
1685475381997721000,8.17772119140625,-0.0004886921960860491,0.0003665191470645368,-0.00043633230961859226
1685475382017721000,8.19772119140625,0.00015707963029854,-0.00006981316983001307,-0.0008726646192371845
1685475382037721000,8.21772119140625,0.00022689280740451068,-0.00017453292093705386,-0.0006981316837482154
1685475382057721000,8.23772119140625,-0.000052359879191499203,-0.0013264502631500363,-0.00020943951676599681
1685475382077721000,8.25772119140625,0.00024434609804302454,-0.001029744278639555,-0.0011693706037476659
1685475382097721000,8.27772119140625,-0.00019198621157556772,0,-0.0007679448463022709
1685475382117721000,8.29772119140625,0.00020943951676599681,-0.00041887903353199363,-0.00031415926059708
1685475382137721000,8.31772119140625,0.00027925267932005227,0.0002617993741296232,0.00015707963029854
1685475382157721000,8.33772119140625,0.00015707963029854,0.0003665191470645368,0.0004886921960860491
1685475382177721000,8.35772119140625,-0.00094247778179124,-0.00031415926059708,-0.00015707963029854
1685475382197721000,8.37772119140625,0.0002617993741296232,-0.00017453292093705386,-0.0011693706037476659
1685475382217721000,8.39772119140625,0.00040142572834156454,0.0005934119690209627,0.00008726646046852693
1685475382237721000,8.41772119140625,0.00027925267932005227,-0.00003490658491500653,0.00010471975838299841
1685475382257721000,8.43772119140625,0.0006981316837482154,0.0003665191470645368,-0.00038397242315113544
1685475382277721000,8.45772119140625,0.00015707963029854,0.00029670598451048136,0.0011693706037476659
1685475382297721000,8.47772119140625,0.00019198621157556772,0.0005759586347267032,-0.0006981316837482154
1685475382317721000,8.49772119140625,0.000052359879191499203,-0.00010471975838299841,0.00006981316983001307
1685475382337721000,8.51772119140625,0.00010471975838299841,-0.00015707963029854,-0.0006981316837482154
1685475382357721000,8.53772119140625,-0.00029670598451048136,-0.000715585018042475,0.00008726646046852693
1685475382377721000,8.55772119140625,0.0009773843921720982,0.0004886921960860491,0.0003490658418741077
1685475382397721000,8.57772119140625,0.0005934119690209627,0.00003490658491500653,-0.0012217304902151227
1685475382417721000,8.59772119140625,-0.000052359879191499203,0.00031415926059708,0.00020943951676599681
1685475382437721000,8.61772119140625,-0.0006981316837482154,-0.00047123889089562,-0.0006108652451075613
1685475382457721000,8.63772119140625,-0.00017453292093705386,-0.0007853981805965304,-0.0005061454721726477
1685475382477721000,8.65772119140625,-0.0002617993741296232,0.0005585053586401045,-0.00008726646046852693
1685475382497721000,8.67772119140625,-0.0005759586347267032,-0.00015707963029854,-0.00038397242315113544
1685475382517721000,8.69772119140625,0.00015707963029854,0.0006632251315750182,-0.00015707963029854
1685475382537721000,8.71772119140625,0.00015707963029854,0.0009250245057046413,0.00013962633966002613
1685475382557721000,8.73772119140625,0.0005759586347267032,0.0005759586347267032,0.0007679448463022709
1685475382577721000,8.75772119140625,-0.00010471975838299841,-0.00015707963029854,-0.0009599310578778386
1685475382597721000,8.77772119140625,0,0.0006632251315750182,0.0003316125657875091
1685475382617721000,8.79772119140625,0.000052359879191499203,-0.0003316125657875091,0.00043633230961859226
1685475382637721000,8.81772119140625,0.00027925267932005227,0.0002617993741296232,0.00008726646046852693
1685475382657721000,8.83772119140625,-0.00015707963029854,0.00047123889089562,0
1685475382677721000,8.85772119140625,0.0003490658418741077,-0.0007853981805965304,-0.0012391837080940604
1685475382697721000,8.87772119140625,0.00022689280740451068,-0.00027925267932005227,-0.0007330382941290736
1685475382717721000,8.89772119140625,-0.0005061454721726477,-0.00003490658491500653,0.00010471975838299841
1685475382737721000,8.91772119140625,-0.00024434609804302454,-0.0015882495790719986,-0.00015707963029854
1685475382757721000,8.93772119140625,0.0005759586347267032,0.0004886921960860491,0.00003490658491500653
1685475382777721000,8.95772119140625,0.00047123889089562,-0.0003490658418741077,-0.0009250245057046413
1685475382797721000,8.97772119140625,0.00006981316983001307,0.0003316125657875091,-0.00017453292093705386
1685475382817721000,8.99772119140625,0,-0.000715585018042475,-0.000052359879191499203
1685475382837721000,9.01772119140625,-0.00029670598451048136,0.00024434609804302454,0.0003490658418741077
1685475382857721000,9.03772119140625,0.00019198621157556772,-0.00031415926059708,-0.00006981316983001307
1685475382877721000,9.05772119140625,-0.00010471975838299841,-0.00043633230961859226,0.00019198621157556772
1685475382897721000,9.07772119140625,0.00024434609804302454,0.00040142572834156454,0.0019373154500499368
1685475382917721000,9.09772119140625,-0.00015707963029854,-0.000715585018042475,-0.0003665191470645368
1685475382937721000,9.11772119140625,-0.00029670598451048136,-0.0010995573829859495,0.00017453292093705386
1685475382957721000,9.13772119140625,0.00045378561480902135,0.0007679448463022709,0.00003490658491500653
1685475382977721000,9.15772119140625,0.00003490658491500653,0.00013962633966002613,-0.0012915435945615172
1685475382997721000,9.17772119140625,0.00029670598451048136,-0.00019198621157556772,0.00024434609804302454
1685475383017721000,9.19772119140625,0.00019198621157556772,0.00020943951676599681,-0.0007504915702156723
1685475383037721000,9.21772119140625,0,0.00020943951676599681,-0.00015707963029854
1685475383057721000,9.23772119140625,-0.00022689280740451068,0.00019198621157556772,0.0005585053586401045
1685475383077721000,9.25772119140625,0.00019198621157556772,0.0005410520825535059,0.00010471975838299841
1685475383097721000,9.27772119140625,0.0002617993741296232,-0.00020943951676599681,-0.0010821041651070118
1685475383117721000,9.29772119140625,0.0002617993741296232,0.00010471975838299841,0.0006806784076616168
1685475383137721000,9.31772119140625,0.0005061454721726477,0.0005585053586401045,0.0012217304902151227
1685475383157721000,9.33772119140625,-0.000017453292457503267,-0.0006108652451075613,0.0003490658418741077
1685475383177721000,9.35772119140625,0.0005585053586401045,-0.0002617993741296232,-0.00017453292093705386
1685475383197721000,9.37772119140625,0.0003490658418741077,-0.0010821041651070118,-0.0007330382941290736
1685475383217721000,9.39772119140625,0.0005759586347267032,-0.00012217304902151227,0.0007504915702156723
1685475383237721000,9.41772119140625,-0.0004886921960860491,0.00003490658491500653,-0.00031415926059708
1685475383257721000,9.43772119140625,-0.00015707963029854,-0.00015707963029854,-0.00041887903353199363
1685475383277721000,9.45772119140625,-0.0009075712296180427,0.00024434609804302454,-0.00012217304902151227
1685475383297721000,9.47772119140625,0.000052359879191499203,0.0003316125657875091,0.000715585018042475
1685475383317721000,9.49772119140625,-0.00043633230961859226,-0.00029670598451048136,-0.00003490658491500653
1685475383337721000,9.51772119140625,0.0007330382941290736,-0.0008377580670639873,-0.0009948377264663577
1685475383357721000,9.53772119140625,0.00040142572834156454,0.0013089969288557768,0.0005759586347267032
1685475383377721000,9.55772119140625,0.00022689280740451068,0.00008726646046852693,-0.00012217304902151227
1685475383397721000,9.57772119140625,-0.00003490658491500653,-0.00020943951676599681,-0.00020943951676599681
1685475383417721000,9.59772119140625,-0.00043633230961859226,0.00008726646046852693,0.00003490658491500653
1685475383437721000,9.61772119140625,-0.00019198621157556772,-0.00047123889089562,-0.00019198621157556772
1685475383457721000,9.63772119140625,0.0005061454721726477,0.0006981316837482154,0.0005934119690209627
1685475383477721000,9.65772119140625,0.00027925267932005227,0.00022689280740451068,0.00029670598451048136
1685475383497721000,9.67772119140625,-0.000017453292457503267,0.00062831852119416,0.0006108652451075613
1685475383517721000,9.69772119140625,0.00006981316983001307,-0.0013613568153232336,-0.00017453292093705386
1685475383537721000,9.71772119140625,0.00027925267932005227,-0.00015707963029854,-0.0005061454721726477
1685475383557721000,9.73772119140625,0.00019198621157556772,0.0003316125657875091,-0.0006981316837482154
1685475383577721000,9.75772119140625,-0.00017453292093705386,-0.000017453292457503267,0.0006981316837482154
1685475383597721000,9.77772119140625,0.00041887903353199363,0.00038397242315113544,-0.00013962633966002613
1685475383617721000,9.79772119140625,0.0005061454721726477,0.0008028514566831291,-0.0005410520825535059
1685475383637721000,9.81772119140625,-0.00015707963029854,-0.0015533430268988013,-0.00017453292093705386
1685475383657721000,9.83772119140625,-0.00017453292093705386,-0.00015707963029854,-0.00027925267932005227
1685475383677721000,9.85772119140625,-0.00038397242315113544,0.00015707963029854,0.0007504915702156723
1685475383697721000,9.87772119140625,0.00015707963029854,-0.00062831852119416,-0.00010471975838299841
1685475383717721000,9.89772119140625,-0.00022689280740451068,0.00013962633966002613,0.00038397242315113544
1685475383737721000,9.91772119140625,0.0003316125657875091,0.00003490658491500653,-0.0005759586347267032
1685475383757721000,9.93772119140625,-0.00012217304902151227,0.0008203047327697277,0
1685475383777721000,9.95772119140625,0,-0.00041887903353199363,0.00040142572834156454
1685475383797721000,9.97772119140625,0.00019198621157556772,0.0005235987482592463,0.0003490658418741077
1685475383817721000,9.99772119140625,-0.00062831852119416,0.0003665191470645368,0.00031415926059708
1685475383837721000,10.01772119140625,-0.00019198621157556772,-0.0014660765882581472,-0.00038397242315113544
1685475383857721000,10.03772119140625,0.00022689280740451068,-0.0006108652451075613,0.0002617993741296232
1685475383877721000,10.05772119140625,0.00024434609804302454,-0.00062831852119416,0.00027925267932005227
1685475383897721000,10.07772119140625,0.00024434609804302454,0.00062831852119416,-0.0006108652451075613
1685475383917721000,10.09772119140625,0.00003490658491500653,-0.0009599310578778386,-0.00094247778179124
1685475383937722600,10.11772265625,0.00027925267932005227,-0.00017453292093705386,-0.0007504915702156723
1685475383957721000,10.13772119140625,0.0006981316837482154,0.00013962633966002613,0
1685475383977722600,10.15772265625,-0.0003490658418741077,0.00015707963029854,-0.0014660765882581472
1685475383997721000,10.17772119140625,-0.000052359879191499203,-0.00012217304902151227,-0.000052359879191499203
1685475384017721000,10.19772119140625,-0.00003490658491500653,-0.0003316125657875091,0
1685475384037721000,10.21772119140625,0.0005061454721726477,0.00038397242315113544,-0.0007504915702156723
1685475384057721000,10.23772119140625,-0.00015707963029854,-0.00022689280740451068,-0.00013962633966002613
1685475384077721000,10.25772119140625,-0.000052359879191499203,0.00045378561480902135,-0.00019198621157556772
1685475384097721000,10.27772119140625,-0.00038397242315113544,-0.0005235987482592463,-0.0006981316837482154
1685475384117721000,10.29772119140625,-0.0007330382941290736,0.00027925267932005227,0.00019198621157556772
1685475384137721000,10.31772119140625,-0.00015707963029854,0.0005410520825535059,0.000052359879191499203
1685475384157721000,10.33772119140625,-0.00031415926059708,0.00008726646046852693,-0.00015707963029854
1685475384177721000,10.35772119140625,0.00024434609804302454,0.0012042771559208632,0.0008203047327697277
1685475384197721000,10.37772119140625,-0.00012217304902151227,-0.00012217304902151227,-0.0003490658418741077
1685475384217721000,10.39772119140625,0.00043633230961859226,0.0006806784076616168,0.0008552113431505859
1685475384237721000,10.41772119140625,-0.0005061454721726477,0.00015707963029854,-0.00015707963029854
1685475384257721000,10.43772119140625,-0.00015707963029854,0.00015707963029854,-0.0006457717972807586
1685475384277721000,10.45772119140625,0.00019198621157556772,-0.00027925267932005227,-0.0009075712296180427
1685475384297721000,10.47772119140625,-0.00041887903353199363,0.00041887903353199363,0.00024434609804302454
1685475384317721000,10.49772119140625,0.000017453292457503267,-0.0003665191470645368,-0.00017453292093705386
1685475384337721000,10.51772119140625,0.000052359879191499203,0.0014660765882581472,-0.00012217304902151227
1685475384357721000,10.53772119140625,0.0003490658418741077,-0.0007330382941290736,-0.00013962633966002613
1685475384377721000,10.55772119140625,0,-0.0013962633674964309,-0.00019198621157556772
1685475384397721000,10.57772119140625,0.00015707963029854,0.0008377580670639873,0.0003665191470645368
1685475384417721000,10.59772119140625,0.00015707963029854,-0.0006981316837482154,-0.00006981316983001307
1685475384437721000,10.61772119140625,-0.0012740903766825795,0.0003490658418741077,-0.00017453292093705386
1685475384457721000,10.63772119140625,0,-0.0013613568153232336,0.00024434609804302454
1685475384477721000,10.65772119140625,0.000052359879191499203,-0.0008552113431505859,-0.0002617993741296232
1685475384497721000,10.67772119140625,0.00024434609804302454,0.0005759586347267032,0.00062831852119416
1685475384517721000,10.69772119140625,0.0003490658418741077,0.00027925267932005227,0.0002617993741296232
1685475384537721000,10.71772119140625,-0.000052359879191499203,-0.00003490658491500653,-0.0003665191470645368
1685475384557721000,10.73772119140625,-0.0011344640515744686,-0.0015707963611930609,-0.00012217304902151227
1685475384577721000,10.75772119140625,0.000052359879191499203,-0.00003490658491500653,-0.0003665191470645368
1685475384597721000,10.77772119140625,-0.00143117003608495,0.0006632251315750182,-0.0007679448463022709
1685475384617721000,10.79772119140625,-0.00006981316983001307,-0.00045378561480902135,-0.00027925267932005227
1685475384637721000,10.81772119140625,-0.00013962633966002613,-0.00043633230961859226,-0.00045378561480902135
1685475384657721000,10.83772119140625,-0.00019198621157556772,-0.0010646508308127522,-0.00029670598451048136
1685475384677721000,10.85772119140625,-0.00045378561480902135,-0.00020943951676599681,-0.00029670598451048136
1685475384697721000,10.87772119140625,-0.0007504915702156723,-0.0008203047327697277,-0.00015707963029854
1685475384717721000,10.89772119140625,-0.00029670598451048136,0.00008726646046852693,0.00038397242315113544
1685475384737721000,10.91772119140625,-0.0003490658418741077,-0.00041887903353199363,-0.0009075712296180427
1685475384757721000,10.93772119140625,0.00006981316983001307,0.00010471975838299841,-0.0003665191470645368
1685475384777721000,10.95772119140625,0,0.00010471975838299841,-0.0008203047327697277
1685475384797721000,10.97772119140625,-0.001029744278639555,0.0003665191470645368,-0.0008552113431505859
1685475384817721000,10.99772119140625,0.000052359879191499203,0,0.0003316125657875091
1685475384837721000,11.01772119140625,0.00020943951676599681,-0.00020943951676599681,0.00010471975838299841
1685475384857721000,11.03772119140625,0.00022689280740451068,-0.00006981316983001307,-0.0011693706037476659
1685475384877721000,11.05772119140625,0.00027925267932005227,-0.00012217304902151227,0.0009250245057046413
1685475384897721000,11.07772119140625,0.00015707963029854,0.0003316125657875091,0.0008901178953237832
1685475384917722600,11.09772265625,0.00022689280740451068,0.0002617993741296232,0.0006806784076616168
1685475384937721000,11.11772119140625,0.0003665191470645368,-0.00013962633966002613,0.00003490658491500653
1685475384957722600,11.13772265625,-0.00022689280740451068,0,-0.00015707963029854
1685475384977721000,11.15772119140625,0.0005410520825535059,-0.0006108652451075613,-0.0008028514566831291
1685475384997722600,11.17772265625,0,0.0005585053586401045,0.00015707963029854
1685475385017722600,11.19772265625,-0.0005061454721726477,0.00013962633966002613,0.0005934119690209627
1685475385037721000,11.21772119140625,-0.00008726646046852693,0.00020943951676599681,-0.00003490658491500653
1685475385057721000,11.23772119140625,0.0003490658418741077,0.0008028514566831291,-0.0005410520825535059
1685475385077721000,11.25772119140625,0.00003490658491500653,0.00038397242315113544,0.0002617993741296232
1685475385097721000,11.27772119140625,0.00024434609804302454,-0.0005585053586401045,-0.00008726646046852693
1685475385117721000,11.29772119140625,0.0003665191470645368,-0.0004886921960860491,0.00019198621157556772
1685475385137721000,11.31772119140625,0.000017453292457503267,-0.0003490658418741077,0.00019198621157556772
1685475385157721000,11.33772119140625,0.0007330382941290736,0.0005934119690209627,-0.0005759586347267032
1685475385177721000,11.35772119140625,-0.00047123889089562,-0.0005585053586401045,-0.001117010717280209
1685475385197721000,11.37772119140625,0.00024434609804302454,0.00047123889089562,-0.0006457717972807586
1685475385217721000,11.39772119140625,0.0002617993741296232,-0.00013962633966002613,0
1685475385237721000,11.41772119140625,-0.000052359879191499203,-0.0011693706037476659,-0.00006981316983001307
1685475385257721000,11.43772119140625,-0.000715585018042475,0.000017453292457503267,-0.00024434609804302454
1685475385277721000,11.45772119140625,-0.00006981316983001307,0.000052359879191499203,-0.0005934119690209627
1685475385297721000,11.47772119140625,-0.0011344640515744686,-0.00094247778179124,-0.0003490658418741077
1685475385317721000,11.49772119140625,-0.00010471975838299841,0.00015707963029854,0.0006457717972807586
1685475385337721000,11.51772119140625,-0.00038397242315113544,-0.0010122909443452954,-0.00003490658491500653
1685475385357721000,11.53772119140625,0.00019198621157556772,-0.000052359879191499203,-0.00031415926059708
1685475385377721000,11.55772119140625,-0.00024434609804302454,0.0008377580670639873,0.00040142572834156454
1685475385397721000,11.57772119140625,0.00008726646046852693,-0.00013962633966002613,0
1685475385417721000,11.59772119140625,-0.00010471975838299841,0.0003490658418741077,0.00019198621157556772
1685475385437721000,11.61772119140625,0.00022689280740451068,0.00012217304902151227,0
1685475385457721000,11.63772119140625,0.00006981316983001307,-0.0006108652451075613,0.00006981316983001307
1685475385477721000,11.65772119140625,0.00024434609804302454,-0.00003490658491500653,-0.00038397242315113544
1685475385497721000,11.67772119140625,-0.00003490658491500653,-0.001343903481028974,-0.0004886921960860491
1685475385517721000,11.69772119140625,-0.0002617993741296232,0.0005759586347267032,-0.0006457717972807586
1685475385537780500,11.717780517578126,0.00024434609804302454,0.00019198621157556772,0.0006108652451075613
1685475385557721000,11.73772119140625,0.00029670598451048136,-0.0008726646192371845,-0.000017453292457503267
1685475385577721000,11.75772119140625,0.00012217304902151227,-0.00024434609804302454,-0.0011693706037476659
1685475385597721000,11.77772119140625,0.00006981316983001307,-0.0007504915702156723,0.0004886921960860491
1685475385617721000,11.79772119140625,-0.00020943951676599681,0.000715585018042475,-0.00008726646046852693
1685475385637721000,11.81772119140625,0.000017453292457503267,0.0003665191470645368,0.00017453292093705386
1685475385657721000,11.83772119140625,0.00094247778179124,0.0005585053586401045,0
1685475385677721000,11.85772119140625,0.00017453292093705386,-0.00062831852119416,-0.00020943951676599681
1685475385697721000,11.87772119140625,0.00003490658491500653,-0.0003316125657875091,0.0003665191470645368
1685475385717721000,11.89772119140625,0.0002617993741296232,-0.0006457717972807586,-0.00017453292093705386
1685475385737721000,11.91772119140625,0.0005061454721726477,-0.00038397242315113544,0.0002617993741296232
1685475385757721000,11.93772119140625,0.00022689280740451068,-0.00008726646046852693,0.00017453292093705386
1685475385777721000,11.95772119140625,-0.0008552113431505859,-0.00008726646046852693,-0.00024434609804302454
1685475385797721000,11.97772119140625,0.00024434609804302454,-0.00047123889089562,-0.00010471975838299841
1685475385817721000,11.99772119140625,0.00012217304902151227,-0.000715585018042475,-0.0003490658418741077
1685475385837721000,12.01772119140625,-0.00003490658491500653,0.0002617993741296232,-0.0009250245057046413
1685475385857721000,12.03772119140625,-0.00012217304902151227,-0.0008203047327697277,0
1685475385877721000,12.05772119140625,0.00015707963029854,0.00031415926059708,0.00040142572834156454
1685475385897721000,12.07772119140625,0.00022689280740451068,0.00003490658491500653,0.0005585053586401045
1685475385917721000,12.09772119140625,0.00003490658491500653,0.00094247778179124,0.0005410520825535059
1685475385937721000,12.11772119140625,0.0005759586347267032,0.0002617993741296232,0.00094247778179124
1685475385957721000,12.13772119140625,0.000017453292457503267,0.00045378561480902135,-0.0009250245057046413
1685475385977721000,12.15772119140625,-0.00038397242315113544,-0.0004886921960860491,0.00038397242315113544
1685475385997721000,12.17772119140625,-0.00022689280740451068,0.0006806784076616168,-0.0006457717972807586
1685475386017721000,12.19772119140625,0.0003665191470645368,0.000715585018042475,0.0010646508308127522
1685475386037721000,12.21772119140625,-0.00031415926059708,-0.0006981316837482154,-0.00006981316983001307
1685475386057721000,12.23772119140625,-0.00019198621157556772,-0.0007853981805965304,0.0005759586347267032
1685475386077721000,12.25772119140625,-0.0002617993741296232,0.00012217304902151227,0.00040142572834156454
1685475386097721000,12.27772119140625,0.00022689280740451068,-0.0018325956771150231,-0.0007330382941290736
1685475386117721000,12.29772119140625,-0.00031415926059708,0.0007853981805965304,-0.00019198621157556772
1685475386137721000,12.31772119140625,0.00012217304902151227,0.001343903481028974,0.0005235987482592463
1685475386157721000,12.33772119140625,-0.0003490658418741077,0.000052359879191499203,-0.00024434609804302454
1685475386177721000,12.35772119140625,0.00012217304902151227,-0.00043633230961859226,-0.00008726646046852693
1685475386197721000,12.37772119140625,0.00024434609804302454,0.00017453292093705386,-0.0003316125657875091
1685475386217721000,12.39772119140625,0.00003490658491500653,0.00029670598451048136,0.0008028514566831291
1685475386237721000,12.41772119140625,0.00019198621157556772,0.0007679448463022709,0.001029744278639555
1685475386257721000,12.43772119140625,0.00022689280740451068,-0.00043633230961859226,-0.00013962633966002613
1685475386277721000,12.45772119140625,-0.0015358896926045418,0.0004886921960860491,-0.00003490658491500653
1685475386297721000,12.47772119140625,0.00012217304902151227,0.0012915435945615172,0.00010471975838299841
1685475386317721000,12.49772119140625,0.00029670598451048136,-0.0004886921960860491,0.0007504915702156723
1685475386337721000,12.51772119140625,-0.00020943951676599681,0.00012217304902151227,0.00045378561480902135
1685475386357721000,12.53772119140625,-0.00015707963029854,-0.00038397242315113544,0.0003316125657875091
1685475386377721000,12.55772119140625,-0.000052359879191499203,0.000017453292457503267,0.00006981316983001307
1685475386397721000,12.57772119140625,0.0002617993741296232,-0.00029670598451048136,-0.0014486232539638877
1685475386417721000,12.59772119140625,-0.00019198621157556772,-0.0014660765882581472,-0.0007330382941290736
1685475386437721000,12.61772119140625,0.00012217304902151227,-0.00027925267932005227,-0.0003665191470645368
1685475386457721000,12.63772119140625,0.0005410520825535059,-0.0005585053586401045,-0.0013613568153232336
1685475386477721000,12.65772119140625,0.0002617993741296232,0.00017453292093705386,-0.0009773843921720982
1685475386497721000,12.67772119140625,-0.00045378561480902135,-0.00038397242315113544,-0.00040142572834156454
1685475386517721000,12.69772119140625,0.00019198621157556772,0.0002617993741296232,-0.00017453292093705386
1685475386537721000,12.71772119140625,0.000052359879191499203,-0.00022689280740451068,-0.00040142572834156454
1685475386557721000,12.73772119140625,-0.00041887903353199363,-0.00010471975838299841,-0.0006457717972807586
1685475386577721000,12.75772119140625,0.0002617993741296232,0.00015707963029854,-0.0003665191470645368
1685475386597721000,12.77772119140625,-0.000017453292457503267,-0.0003665191470645368,0.0002617993741296232
1685475386617721000,12.79772119140625,-0.00019198621157556772,0.00010471975838299841,-0.0003490658418741077
1685475386637721000,12.81772119140625,-0.0009773843921720982,0.0005235987482592463,-0.0003316125657875091
1685475386657721000,12.83772119140625,-0.0002617993741296232,-0.0003316125657875091,-0.0004886921960860491
1685475386677721000,12.85772119140625,-0.0009250245057046413,-0.0007330382941290736,-0.00045378561480902135
1685475386697721000,12.87772119140625,-0.0002617993741296232,0,-0.00031415926059708
1685475386717721000,12.89772119140625,-0.00020943951676599681,0.00024434609804302454,0
1685475386737721000,12.91772119140625,0.00040142572834156454,-0.0005410520825535059,0.00013962633966002613
1685475386757721000,12.93772119140625,0.00022689280740451068,-0.00062831852119416,-0.0007853981805965304
1685475386777721000,12.95772119140625,0,0.00019198621157556772,-0.0010821041651070118
1685475386797721000,12.97772119140625,-0.00041887903353199363,-0.00017453292093705386,-0.0006108652451075613
1685475386817721000,12.99772119140625,0.00015707963029854,-0.0003316125657875091,-0.00043633230961859226
1685475386837721000,13.01772119140625,0.00020943951676599681,-0.00031415926059708,-0.0008028514566831291
1685475386857721000,13.03772119140625,0.0005061454721726477,0.0008377580670639873,-0.00024434609804302454
1685475386877721000,13.05772119140625,0.00027925267932005227,-0.00012217304902151227,-0.0006806784076616168
1685475386897721000,13.07772119140625,0.00022689280740451068,-0.00006981316983001307,0.000017453292457503267
1685475386917721000,13.09772119140625,0.00012217304902151227,-0.00047123889089562,-0.0009075712296180427
1685475386937721000,13.11772119140625,-0.00047123889089562,-0.0009599310578778386,-0.00020943951676599681
1685475386957721000,13.13772119140625,-0.00008726646046852693,0.0004886921960860491,0.00062831852119416
1685475386977721000,13.15772119140625,-0.00019198621157556772,0.00043633230961859226,-0.0004886921960860491
1685475386997721000,13.17772119140625,-0.00019198621157556772,-0.00029670598451048136,0.0007504915702156723
1685475387017721000,13.19772119140625,0.0005410520825535059,-0.00024434609804302454,0.00008726646046852693
1685475387037721000,13.21772119140625,-0.00013962633966002613,0.0008901178953237832,0.00012217304902151227
1685475387057721000,13.23772119140625,0.000017453292457503267,0.00031415926059708,-0.00043633230961859226
1685475387077721000,13.25772119140625,0.0005410520825535059,0.00024434609804302454,-0.0003665191470645368
1685475387097721000,13.27772119140625,0.00019198621157556772,-0.00015707963029854,-0.0005061454721726477
1685475387117721000,13.29772119140625,-0.0005061454721726477,0.00094247778179124,0.000017453292457503267
1685475387137721000,13.31772119140625,0.00024434609804302454,0.002199114765971899,-0.00043633230961859226
1685475387157721000,13.33772119140625,0.00047123889089562,0.0002617993741296232,0.0003316125657875091
1685475387177721000,13.35772119140625,0.00020943951676599681,-0.00012217304902151227,-0.00031415926059708
1685475387197721000,13.37772119140625,-0.0006806784076616168,-0.0015358896926045418,0.0003665191470645368
1685475387217721000,13.39772119140625,-0.0009599310578778386,-0.000052359879191499203,0.00094247778179124
1685475387237721000,13.41772119140625,-0.0006632251315750182,-0.0013089969288557768,-0.001029744278639555
1685475387257721000,13.43772119140625,-0.00015707963029854,0.0007504915702156723,0.0003490658418741077
1685475387277721000,13.45772119140625,-0.0005934119690209627,0.00043633230961859226,-0.00029670598451048136
1685475387297721000,13.47772119140625,-0.000052359879191499203,0.0004886921960860491,0.00008726646046852693
1685475387317721000,13.49772119140625,0.0005410520825535059,0.00031415926059708,0.00003490658491500653
1685475387337721000,13.51772119140625,-0.00027925267932005227,0.0016057029133662581,-0.00024434609804302454
1685475387357721000,13.53772119140625,0.00024434609804302454,-0.00125663704238832,-0.0003316125657875091
1685475387377721000,13.55772119140625,-0.0006108652451075613,0.000715585018042475,-0.0006108652451075613
1685475387397721000,13.57772119140625,0.00019198621157556772,0.0006108652451075613,-0.0007504915702156723
1685475387417721000,13.59772119140625,0.0003316125657875091,0.0009948377264663577,0.0006981316837482154
1685475387437721000,13.61772119140625,-0.00020943951676599681,0.0016231562476605177,0.0011519172694534063
1685475387457721000,13.63772119140625,-0.00019198621157556772,0.00010471975838299841,-0.00027925267932005227
1685475387477721000,13.65772119140625,-0.00029670598451048136,0.00012217304902151227,0.00043633230961859226
1685475387497721000,13.67772119140625,-0.0003490658418741077,0.00010471975838299841,-0.00143117003608495
1685475387517721000,13.69772119140625,-0.00047123889089562,-0.00027925267932005227,-0.0009250245057046413
1685475387537721000,13.71772119140625,-0.05771803855895996,-0.00031415926059708,-0.0006108652451075613
1685475387557721000,13.73772119140625,-0.5631828308105469,0.00024434609804302454,0.004258603323251009
1685475387577721000,13.75772119140625,-0.4553913176059723,-0.0029321531765162945,0.001658062799833715
1685475387597721000,13.77772119140625,-0.2849075496196747,-0.0009773843921720982,0.003089232835918665
1685475387617721000,13.79772119140625,-0.14789919555187225,-0.0007504915702156723,0.00027925267932005227
1685475387637721000,13.81772119140625,-0.032620202749967575,-0.0017278759041801095,0.0003665191470645368
1685475387657721000,13.83772119140625,-0.09112364053726196,0,0.0007853981805965304
1685475387677721000,13.85772119140625,-0.16931438446044922,-0.001483529806137085,0.0003316125657875091
1685475387697721000,13.87772119140625,-0.22422245144844055,-0.0019896754529327154,0.000052359879191499203
1685475387717721000,13.89772119140625,-0.21589723229408264,-0.00251327408477664,0.0006806784076616168
1685475387737721000,13.91772119140625,-0.2074149250984192,-0.0012740903766825795,0.0006108652451075613
1685475387757721000,13.93772119140625,-0.22198842465877533,-0.0022165682166814804,0.0007504915702156723
1685475387777721000,13.95772119140625,-0.252322256565094,-0.001658062799833715,0.0006632251315750182
1685475387797721000,13.97772119140625,-0.275988906621933,-0.0018325956771150231,0.0007330382941290736
1685475387817721000,13.99772119140625,-0.243630513548851,-0.0008028514566831291,0.0020769417751580477
1685475387837721000,14.01772119140625,-0.274208664894104,-0.002478367416188121,0.0016755161341279745
1685475387857721000,14.03772119140625,-0.2598620653152466,-0.0021816615480929613,0.003054326167330146
1685475387877721000,14.05772119140625,-0.25328218936920166,-0.0006981316837482154,0.0006981316837482154
1685475387897721000,14.07772119140625,-0.28993409872055054,-0.0008377580670639873,0.0006632251315750182
1685475387917721000,14.09772119140625,-0.3352079391479492,-0.002460914198309183,0.00022689280740451068
1685475387937721000,14.11772119140625,-0.3171437680721283,-0.004328416660428047,0.00027925267932005227
1685475387957721000,14.13772119140625,-0.28214994072914124,-0.0002617993741296232,0.0005235987482592463
1685475387977721000,14.15772119140625,-0.24144884943962097,-0.0016929693520069122,0.0006108652451075613
1685475387997721000,14.17772119140625,-0.2548529803752899,-0.00024434609804302454,0.00022689280740451068
1685475388017721000,14.19772119140625,-0.23254767060279846,-0.002914699725806713,0.0007853981805965304
1685475388037721000,14.21772119140625,-0.2053728997707367,-0.0012740903766825795,0.0008901178953237832
1685475388057721000,14.23772119140625,-0.21495474874973297,-0.0010646508308127522,0.00017453292093705386
1685475388077721000,14.25772119140625,-0.2442064732313156,-0.0012042771559208632,0.00125663704238832
1685475388097721000,14.27772119140625,-0.22387337684631348,-0.0018151424592360854,0.0017278759041801095
1685475388117721000,14.29772119140625,-0.24275784194469452,-0.00019198621157556772,0.0017278759041801095
1685475388137721000,14.31772119140625,-0.23916245996952057,-0.0023387412074953318,-0.00015707963029854
1685475388157721000,14.33772119140625,-0.21971949934959412,-0.00205948855727911,0.00094247778179124
1685475388177721000,14.35772119140625,-0.199351504445076,-0.00013962633966002613,0.00027925267932005227
1685475388197721000,14.37772119140625,-0.24041910469532013,-0.0012740903766825795,0.00024434609804302454
1685475388217721000,14.39772119140625,-0.29623472690582275,-0.002775073517113924,-0.0002617993741296232
1685475388237721000,14.41772119140625,-0.28787460923194885,-0.0025830871891230345,0.0008726646192371845
1685475388257721000,14.43772119140625,-0.2758841812610626,-0.002949606394395232,0.0007504915702156723
1685475388277721000,14.45772119140625,-0.27553513646125793,-0.004066617228090763,-0.0003316125657875091
1685475388297721000,14.47772119140625,-0.28878217935562134,-0.0010122909443452954,0.0010122909443452954
1685475388317721000,14.49772119140625,-0.2896897494792938,-0.0015533430268988013,0.0017802357906475663
1685475388337721000,14.51772119140625,-0.2640857696533203,-0.0008377580670639873,0.0020943949930369854
1685475388357721000,14.53772119140625,-0.23584634065628052,-0.00143117003608495,-0.00043633230961859226
1685475388377721000,14.55772119140625,-0.2592337429523468,-0.0014486232539638877,0.00019198621157556772
1685475388397721000,14.57772119140625,-0.27522096037864685,-0.00038397242315113544,0.00062831852119416
1685475388417721000,14.59772119140625,-0.26200881600379944,-0.00188495556358248,0.0011344640515744686
1685475388437721000,14.61772119140625,-0.2825688123703003,-0.0017976891249418259,-0.0002617993741296232
1685475388457721000,14.63772119140625,-0.29014351963996887,-0.0011519172694534063,0.0026354470755904913
1685475388477721000,14.65772119140625,-0.27237609028816223,-0.0024085543118417263,0.0010646508308127522
1685475388497721000,14.67772119140625,-0.21942278742790222,-0.0008726646192371845,0.0021293016616255045
1685475388517721000,14.69772119140625,-0.29393088817596436,0.0011344640515744686,0.0025656339712440968
1685475388537721000,14.71772119140625,-0.3182782530784607,-0.0024958208668977022,0.0005585053586401045
1685475388557721000,14.73772119140625,-0.2813819944858551,-0.004502949304878712,0.00019198621157556772
1685475388577721000,14.75772119140625,-0.3050835430622101,-0.0021642083302140236,0.00125663704238832
1685475388597721000,14.77772119140625,-0.32278120517730713,-0.0013788101496174932,0.0007330382941290736
1685475388617721000,14.79772119140625,-0.3383844196796417,-0.001658062799833715,0.0003490658418741077
1685475388637721000,14.81772119140625,-0.3390651047229767,-0.0012740903766825795,0.0016755161341279745
1685475388657721000,14.83772119140625,-0.3444232642650604,-0.004642575979232788,0.0011344640515744686
1685475388677721000,14.85772119140625,-0.3122568428516388,-0.0047996556386351585,0.0013613568153232336
1685475388697721000,14.87772119140625,-0.2989225387573242,-0.001117010717280209,0.00040142572834156454
1685475388717721000,14.89772119140625,-0.2598097026348114,-0.0030194194987416267,0.0012391837080940604
1685475388737721000,14.91772119140625,-0.2631781995296478,-0.0028623400721699,0.00047123889089562
1685475388757721000,14.93772119140625,-0.2635272741317749,-0.0017104226863011718,0.0026354470755904913
1685475388777721000,14.95772119140625,-0.2656041979789734,-0.00043633230961859226,0.00188495556358248
1685475388797721000,14.97772119140625,-0.25300294160842896,-0.0013613568153232336,0.0015882495790719986
1685475388817721000,14.99772119140625,-0.21125465631484985,-0.0017976891249418259,-0.0003490658418741077
1685475388837721000,15.01772119140625,-0.23930209875106812,-0.002460914198309183,0.0005235987482592463
1685475388857721000,15.03772119140625,-0.2980847954750061,-0.0019373154500499368,0.0017627825727686286
1685475388877721000,15.05772119140625,-0.3142988979816437,-0.002007128670811653,0.0008203047327697277
1685475388897721000,15.07772119140625,-0.30171507596969604,-0.0013613568153232336,0.0010122909443452954
1685475388917721000,15.09772119140625,-0.2670528292655945,-0.0019896754529327154,0.0009948377264663577
1685475388937721000,15.11772119140625,-0.3136705756187439,0,0.0013962633674964309
1685475388957721000,15.13772119140625,-0.32799971103668213,-0.002460914198309183,0.003543018363416195
1685475388977721000,15.15772119140625,-0.329012006521225,-0.0011693706037476659,0.0017278759041801095
1685475388997722600,15.17772265625,-0.3723659813404083,-0.0022689281031489372,0.0016231562476605177
1685475389017721000,15.19772119140625,-0.410710871219635,-0.003490658476948738,0.0006457717972807586
1685475389037721000,15.21772119140625,-0.400937020778656,-0.002373647876083851,0.00041887903353199363
1685475389057721000,15.23772119140625,-0.37662458419799805,-0.004694935865700245,0.001343903481028974
1685475389077721000,15.25772119140625,-0.34922292828559875,-0.0020769417751580477,0.00031415926059708
1685475389097721000,15.27772119140625,-0.3297799527645111,-0.0011868239380419254,0.002286381321027875
1685475389117721000,15.29772119140625,-0.38788196444511414,-0.0007853981805965304,0.0022165682166814804
1685475389137721000,15.31772119140625,-0.3948283791542053,-0.0034208453726023436,0.00188495556358248
1685475389157721000,15.33772119140625,-0.3700621724128723,-0.004241149872541428,0.0005934119690209627
1685475389177721000,15.35772119140625,-0.315189003944397,-0.004764748737215996,0.0014660765882581472
1685475389197721000,15.37772119140625,-0.2989749014377594,-0.003996803890913725,-0.00017453292093705386
1685475389217721000,15.39772119140625,-0.30262264609336853,-0.001745329238474369,0.0024958208668977022
1685475389237721000,15.41772119140625,-0.2800206243991852,-0.0011693706037476659,0.0011344640515744686
1685475389257721000,15.43772119140625,-0.2984338402748108,-0.004153883550316095,0.0016755161341279745
1685475389277721000,15.45772119140625,-0.2851867973804474,-0.00427605677396059,-0.00038397242315113544
1685475389297721000,15.47772119140625,-0.2916968762874603,-0.0007679448463022709,0.0019547687843441963
1685475389317721000,15.49772119140625,-0.2915048897266388,-0.0030194194987416267,0.001483529806137085
1685475389337721000,15.51772119140625,-0.3064274489879608,-0.00013962633966002613,0.00019198621157556772
1685475389357721000,15.53772119140625,-0.3289945721626282,-0.00251327408477664,0.0032463124953210354
1685475389377721000,15.55772119140625,-0.3692243993282318,-0.0017802357906475663,0.001029744278639555
1685475389397721000,15.57772119140625,-0.3661351799964905,-0.0028623400721699,0.0027576202992349863
1685475389417721000,15.59772119140625,-0.3660304546356201,-0.0036128314677625895,-0.00013962633966002613
1685475389437721000,15.61772119140625,-0.34978142380714417,-0.00331612559966743,0.0018325956771150231
1685475389457721000,15.63772119140625,-0.34026938676834106,-0.0018151424592360854,0.0010646508308127522
1685475389477721000,15.65772119140625,-0.30232593417167664,-0.0020943949930369854,0.0014660765882581472
1685475389497721000,15.67772119140625,-0.3237062096595764,-0.0011344640515744686,0.0008726646192371845
1685475389517721000,15.69772119140625,-0.26738443970680237,-0.001343903481028974,0.0004886921960860491
1685475389537721000,15.71772119140625,-0.27523842453956604,-0.001658062799833715,0.0008028514566831291
1685475389557721000,15.73772119140625,-0.3333229720592499,-0.001745329238474369,0.0010646508308127522
1685475389577721000,15.75772119140625,-0.3674790859222412,-0.0013962633674964309,0.00024434609804302454
1685475389597721000,15.77772119140625,-0.3272143304347992,-0.0038920841179788113,0.0019373154500499368
1685475389617721000,15.79772119140625,-0.2535090744495392,-0.0026179938577115536,0.001117010717280209
1685475389637721000,15.81772119140625,-0.25305527448654175,-0.0014486232539638877,0.0003665191470645368
1685475389657721000,15.83772119140625,-0.23917992413043976,-0.00143117003608495,0.0016755161341279745
1685475389677721000,15.85772119140625,-0.3050661087036133,-0.0017278759041801095,0.0008726646192371845
1685475389697721000,15.87772119140625,-0.2923426628112793,-0.0013788101496174932,0.0010821041651070118
1685475389717721000,15.89772119140625,-0.2644522786140442,-0.0017627825727686286,0.0011344640515744686
1685475389737722600,15.91772265625,-0.266145259141922,-0.0010821041651070118,0.0010471974965184927
1685475389757721000,15.93772119140625,-0.23404864966869354,-0.001745329238474369,0.0009599310578778386
1685475389777721000,15.95772119140625,-0.16948892176151276,-0.002321287989616394,0.0008028514566831291
1685475389797721000,15.97772119140625,-0.17807593941688538,-0.00041887903353199363,0.002478367416188121
1685475389817721000,15.99772119140625,-0.2021789401769638,-0.0014660765882581472,0.0009773843921720982
1685475389837721000,16.01772119140625,-0.22856831550598145,-0.001343903481028974,0.0005585053586401045
1685475389857721000,16.03772119140625,-0.2595304548740387,-0.0036477381363511086,-0.000052359879191499203
1685475389877721000,16.05772119140625,-0.28036969900131226,-0.00027925267932005227,0.0006457717972807586
1685475389897721000,16.07772119140625,-0.24965189397335052,-0.0025830871891230345,0.00041887903353199363
1685475389917721000,16.09772119140625,-0.2522698938846588,-0.0009075712296180427,0.0031241392716765404
1685475389937721000,16.11772119140625,-0.25333455204963684,-0.0027576202992349863,0.00043633230961859226
1685475389957721000,16.13772119140625,-0.27721065282821655,-0.00296705961227417,0.0010995573829859495
1685475389977721000,16.15772119140625,-0.3265511095523834,-0.0026354470755904913,0.00038397242315113544
1685475389997721000,16.17772119140625,-0.40685370564460754,-0.00331612559966743,0.0006457717972807586
1685475390017722600,16.19772265625,-0.48178067803382874,-0.005096361506730318,0.0020420351065695286
1685475390037721000,16.21772119140625,-0.5096186995506287,-0.007365289609879255,0.00047123889089562
1685475390057721000,16.23772119140625,-0.453925222158432,-0.003525565145537257,0.0019024088978767395
1685475390077721000,16.25772119140625,-0.3531324565410614,-0.003176499158143997,0.0016406094655394554
1685475390097721000,16.27772119140625,-0.2537708580493927,-0.00205948855727911,0.0013613568153232336
1685475390117721000,16.29772119140625,-0.18020524084568024,-0.0013264502631500363,-0.00010471975838299841
1685475390137721000,16.31772119140625,-0.011135200969874859,-0.00003490658491500653,0
1685475390157721000,16.33772119140625,0.00019198621157556772,-0.00012217304902151227,0.0006457717972807586
1685475390177721000,16.35772119140625,-0.00047123889089562,0.00019198621157556772,-0.00019198621157556772
1685475390197721000,16.37772119140625,-0.0008552113431505859,-0.00029670598451048136,-0.00038397242315113544
1685475390217721000,16.39772119140625,0.00019198621157556772,-0.0005759586347267032,-0.00022689280740451068
1685475390237721000,16.41772119140625,0.00031415926059708,0,-0.0011344640515744686
1685475390257721000,16.43772119140625,0.00006981316983001307,0.00013962633966002613,-0.00013962633966002613
1685475390277721000,16.45772119140625,0.00094247778179124,-0.0006108652451075613,-0.0009599310578778386
1685475390297721000,16.47772119140625,0.00022689280740451068,-0.00013962633966002613,0.00013962633966002613
1685475390317721000,16.49772119140625,-0.0008377580670639873,-0.0006806784076616168,-0.0004886921960860491
1685475390337721000,16.51772119140625,0.0005585053586401045,0.0007504915702156723,-0.00031415926059708
1685475390357721000,16.53772119140625,0.0003490658418741077,-0.0009948377264663577,-0.0010471974965184927
1685475390377721000,16.55772119140625,-0.00041887903353199363,0.000052359879191499203,0.00020943951676599681
1685475390397721000,16.57772119140625,-0.00062831852119416,-0.0005585053586401045,-0.00022689280740451068
1685475390417721000,16.59772119140625,-0.00008726646046852693,-0.00041887903353199363,-0.0014660765882581472
1685475390437721000,16.61772119140625,0.00017453292093705386,0.000052359879191499203,-0.00022689280740451068
1685475390457721000,16.63772119140625,0.00022689280740451068,0.00006981316983001307,-0.0014660765882581472
1685475390477721000,16.65772119140625,-0.0005585053586401045,0.0005410520825535059,0.0003665191470645368
1685475390497721000,16.67772119140625,0.00019198621157556772,-0.00040142572834156454,-0.0008203047327697277
1685475390517721000,16.69772119140625,0.0006632251315750182,-0.000017453292457503267,-0.0005410520825535059
1685475390537721000,16.71772119140625,0.0006457717972807586,0.0007853981805965304,-0.00019198621157556772
1685475390557721000,16.73772119140625,0.0005410520825535059,-0.0016929693520069122,-0.0012740903766825795
1685475390577721000,16.75772119140625,0.00022689280740451068,-0.001117010717280209,-0.000017453292457503267
1685475390597721000,16.77772119140625,-0.000017453292457503267,0.0006632251315750182,0.0007330382941290736
1685475390617721000,16.79772119140625,0.00020943951676599681,-0.0014137167017906904,-0.001029744278639555
1685475390637721000,16.81772119140625,0.00022689280740451068,-0.0006981316837482154,-0.001343903481028974
1685475390657721000,16.83772119140625,0,-0.0011344640515744686,0.0005235987482592463
1685475390677721000,16.85772119140625,-0.000052359879191499203,0.00043633230961859226,-0.0006108652451075613
1685475390697721000,16.87772119140625,0.00012217304902151227,0.0003316125657875091,0.00012217304902151227
1685475390717721000,16.89772119140625,0.00010471975838299841,0.000017453292457503267,-0.00003490658491500653
1685475390737721000,16.91772119140625,0.001029744278639555,0.0008726646192371845,0.00010471975838299841
1685475390757721000,16.93772119140625,-0.0005235987482592463,-0.00047123889089562,0
1685475390777721000,16.95772119140625,0.00012217304902151227,-0.00015707963029854,-0.0005235987482592463
1685475390797721000,16.97772119140625,-0.00003490658491500653,0.0010646508308127522,-0.00012217304902151227
1685475390817721000,16.99772119140625,0.00022689280740451068,-0.00015707963029854,-0.0008726646192371845
1685475390837721000,17.01772119140625,-0.00008726646046852693,0.00012217304902151227,-0.00047123889089562
1685475390857721000,17.03772119140625,0.0002617993741296232,-0.00029670598451048136,-0.0008901178953237832
1685475390877721000,17.05772119140625,0.00024434609804302454,0.00008726646046852693,-0.0003490658418741077
1685475390897721000,17.07772119140625,0.00012217304902151227,-0.0002617993741296232,-0.00010471975838299841
1685475390917721000,17.09772119140625,-0.00010471975838299841,-0.0008028514566831291,-0.0009773843921720982
1685475390937721000,17.11772119140625,0.00008726646046852693,0.0003490658418741077,0.00047123889089562
1685475390957721000,17.13772119140625,-0.0008203047327697277,-0.00027925267932005227,-0.00024434609804302454
1685475390977721000,17.15772119140625,0.00024434609804302454,-0.0003316125657875091,-0.0005410520825535059
1685475390997721000,17.17772119140625,0.00024434609804302454,0.0003665191470645368,-0.00010471975838299841
1685475391017721000,17.19772119140625,0.0006632251315750182,-0.0005235987482592463,-0.0008552113431505859
1685475391037721000,17.21772119140625,-0.0003490658418741077,-0.00013962633966002613,0.00006981316983001307
1685475391057721000,17.23772119140625,0.000017453292457503267,-0.00019198621157556772,-0.00031415926059708
1685475391077721000,17.25772119140625,0.00024434609804302454,-0.0012217304902151227,-0.00024434609804302454
1685475391097721000,17.27772119140625,0.00024434609804302454,0.00020943951676599681,-0.00062831852119416
1685475391117721000,17.29772119140625,0.00045378561480902135,-0.00040142572834156454,-0.0008901178953237832
1685475391137721000,17.31772119140625,0.00027925267932005227,0.00022689280740451068,0.0003316125657875091
1685475391157721000,17.33772119140625,-0.0003490658418741077,-0.00029670598451048136,-0.00012217304902151227
1685475391177721000,17.35772119140625,-0.0009773843921720982,0.0005585053586401045,-0.0008028514566831291
1685475391197721000,17.37772119140625,-0.00017453292093705386,-0.00047123889089562,-0.0003490658418741077
1685475391217721000,17.39772119140625,-0.00010471975838299841,-0.00008726646046852693,0.00013962633966002613
1685475391237721000,17.41772119140625,0.00024434609804302454,0.00020943951676599681,-0.00027925267932005227
1685475391257721000,17.43772119140625,0.0007679448463022709,0.0007330382941290736,-0.00043633230961859226
1685475391277721000,17.45772119140625,-0.00006981316983001307,-0.0008028514566831291,-0.0013962633674964309
1685475391297721000,17.47772119140625,0.000715585018042475,-0.0005235987482592463,0.00022689280740451068
1685475391317721000,17.49772119140625,-0.00027925267932005227,0.00008726646046852693,0.00010471975838299841
1685475391337721000,17.51772119140625,-0.000017453292457503267,-0.0008203047327697277,-0.00013962633966002613
1685475391357721000,17.53772119140625,0,0.00003490658491500653,-0.00003490658491500653
1685475391377721000,17.55772119140625,0.00006981316983001307,-0.0002617993741296232,-0.0006457717972807586
1685475391397721000,17.57772119140625,-0.0010995573829859495,0.0005410520825535059,-0.0006108652451075613
1685475391417721000,17.59772119140625,0.00019198621157556772,-0.00006981316983001307,-0.0003316125657875091
1685475391437721000,17.61772119140625,0.0006632251315750182,-0.001117010717280209,-0.0009773843921720982
1685475391457721000,17.63772119140625,0.00012217304902151227,-0.00010471975838299841,0.0005759586347267032
1685475391477721000,17.65772119140625,0.000017453292457503267,-0.0007504915702156723,-0.00006981316983001307
1685475391497721000,17.67772119140625,0.00012217304902151227,0.00006981316983001307,-0.00013962633966002613
1685475391517721000,17.69772119140625,-0.00017453292093705386,0.00031415926059708,0.00012217304902151227
1685475391537721000,17.71772119140625,0.00008726646046852693,-0.00041887903353199363,-0.00031415926059708
1685475391557721000,17.73772119140625,0.00010471975838299841,-0.0005759586347267032,-0.0019024088978767395
1685475391577721000,17.75772119140625,0.00019198621157556772,-0.00015707963029854,-0.0007679448463022709
1685475391597721000,17.77772119140625,0.00029670598451048136,-0.0008901178953237832,-0.00045378561480902135
1685475391617721000,17.79772119140625,0,-0.0007504915702156723,-0.00045378561480902135
1685475391637721000,17.81772119140625,0.0002617993741296232,0.00029670598451048136,0.00003490658491500653
1685475391657721000,17.83772119140625,0.00024434609804302454,0.00013962633966002613,0.00020943951676599681
1685475391677721000,17.85772119140625,-0.0007853981805965304,-0.0015533430268988013,-0.00012217304902151227
1685475391697721000,17.87772119140625,0.00019198621157556772,-0.0009773843921720982,-0.0006806784076616168
1685475391717721000,17.89772119140625,0.0003665191470645368,0.00006981316983001307,-0.0005061454721726477
1685475391737721000,17.91772119140625,0.00015707963029854,0.0012740903766825795,0
1685475391757721000,17.93772119140625,-0.000052359879191499203,-0.001483529806137085,-0.00020943951676599681
1685475391777721000,17.95772119140625,0.00006981316983001307,0.00029670598451048136,-0.0008377580670639873
1685475391797721000,17.97772119140625,-0.00020943951676599681,-0.00017453292093705386,-0.00010471975838299841
1685475391817721000,17.99772119140625,-0.00047123889089562,0.00024434609804302454,0.00010471975838299841
1685475391837721000,18.01772119140625,0.000017453292457503267,-0.0005235987482592463,-0.0008028514566831291
1685475391857721000,18.03772119140625,0.00022689280740451068,-0.00013962633966002613,-0.0007504915702156723
1685475391877721000,18.05772119140625,-0.0005585053586401045,-0.00029670598451048136,-0.0013264502631500363
1685475391897721000,18.07772119140625,-0.00027925267932005227,-0.001972222002223134,-0.0006632251315750182
1685475391917721000,18.09772119140625,-0.00022689280740451068,0.00003490658491500653,-0.001117010717280209
1685475391937721000,18.11772119140625,-0.00020943951676599681,-0.00015707963029854,-0.0013962633674964309
1685475391957721000,18.13772119140625,-0.0008028514566831291,0.0008203047327697277,-0.00040142572834156454
1685475391977721000,18.15772119140625,0.00012217304902151227,-0.00022689280740451068,-0.00013962633966002613
1685475391997721000,18.17772119140625,0.00006981316983001307,0.00041887903353199363,-0.0007330382941290736
1685475392017721000,18.19772119140625,-0.00024434609804302454,-0.0008726646192371845,-0.002199114765971899
1685475392037721000,18.21772119140625,-0.00006981316983001307,-0.0005410520825535059,-0.0007330382941290736
1685475392057721000,18.23772119140625,-0.0005410520825535059,-0.0011868239380419254,-0.0009948377264663577
1685475392077721000,18.25772119140625,-0.00012217304902151227,0.00017453292093705386,-0.0008552113431505859
1685475392097721000,18.27772119140625,0.000017453292457503267,0.0002617993741296232,0.0002617993741296232
1685475392117721000,18.29772119140625,-0.00040142572834156454,-0.00045378561480902135,-0.0007504915702156723
1685475392137721000,18.31772119140625,0.00062831852119416,0.00015707963029854,-0.00013962633966002613
1685475392157721000,18.33772119140625,0.000017453292457503267,-0.00027925267932005227,-0.0006806784076616168
1685475392177721000,18.35772119140625,0.00022689280740451068,0.0002617993741296232,-0.0006632251315750182
1685475392197721000,18.37772119140625,0.00020943951676599681,-0.00017453292093705386,-0.0008203047327697277
1685475392217721000,18.39772119140625,0.0006981316837482154,-0.00029670598451048136,-0.0015009831404313445
1685475392237721000,18.41772119140625,0.00022689280740451068,-0.00029670598451048136,0.00024434609804302454
1685475392257721000,18.43772119140625,-0.0006108652451075613,-0.0009948377264663577,-0.002024581888690591
1685475392277722600,18.45772265625,-0.00043633230961859226,0.00022689280740451068,0.00013962633966002613
1685475392297721000,18.47772119140625,0.00012217304902151227,0.0011344640515744686,0.0006806784076616168
1685475392317721000,18.49772119140625,0.00013962633966002613,-0.00029670598451048136,-0.0005585053586401045
1685475392337721000,18.51772119140625,-0.00019198621157556772,-0.0012042771559208632,-0.0003490658418741077
1685475392357721000,18.53772119140625,-0.00010471975838299841,0.0008028514566831291,-0.0003665191470645368
1685475392377721000,18.55772119140625,-0.00003490658491500653,-0.00043633230961859226,-0.0003490658418741077
1685475392397721000,18.57772119140625,-0.00020943951676599681,-0.00006981316983001307,-0.000017453292457503267
1685475392417721000,18.59772119140625,0.000017453292457503267,-0.0008377580670639873,-0.0014137167017906904
1685475392437721000,18.61772119140625,-0.00031415926059708,-0.0012915435945615172,-0.0009250245057046413
1685475392457721000,18.63772119140625,0.00024434609804302454,0.0003490658418741077,-0.00038397242315113544
1685475392477721000,18.65772119140625,0.00010471975838299841,0.0003665191470645368,0.0005235987482592463
1685475392497721000,18.67772119140625,0.00017453292093705386,0.00003490658491500653,-0.00008726646046852693
1685475392517721000,18.69772119140625,0.000017453292457503267,-0.0007853981805965304,-0.0011519172694534063
1685475392537721000,18.71772119140625,-0.0011868239380419254,0.00020943951676599681,-0.0015358896926045418
1685475392557721000,18.73772119140625,-0.00024434609804302454,-0.000052359879191499203,-0.0006806784076616168
1685475392577721000,18.75772119140625,0.00020943951676599681,-0.00008726646046852693,-0.00020943951676599681
1685475392597721000,18.77772119140625,0.00003490658491500653,-0.00062831852119416,-0.0005235987482592463
1685475392617721000,18.79772119140625,0.00020943951676599681,-0.0011693706037476659,-0.0015707963611930609
1685475392637721000,18.81772119140625,-0.00045378561480902135,-0.0003665191470645368,-0.0003490658418741077
1685475392657721000,18.83772119140625,-0.00022689280740451068,-0.0004886921960860491,-0.0003490658418741077
1685475392677721000,18.85772119140625,0.000017453292457503267,0,0.0002617993741296232
1685475392697721000,18.87772119140625,0.00045378561480902135,-0.00041887903353199363,-0.0008028514566831291
1685475392717721000,18.89772119140625,0.00024434609804302454,0.0005061454721726477,-0.0006632251315750182
1685475392737721000,18.91772119140625,0.00020943951676599681,-0.0005585053586401045,-0.0008028514566831291
1685475392757721000,18.93772119140625,-0.00015707963029854,-0.0005235987482592463,-0.0012740903766825795
1685475392777721000,18.95772119140625,0.00020943951676599681,-0.001483529806137085,-0.00003490658491500653
1685475392797721000,18.97772119140625,0.0006632251315750182,-0.00006981316983001307,0.00017453292093705386
1685475392817721000,18.99772119140625,0.0011344640515744686,-0.0015009831404313445,-0.0008377580670639873
1685475392837721000,19.01772119140625,-0.0008726646192371845,0.00015707963029854,0.0007330382941290736
1685475392857721000,19.03772119140625,0,0.00029670598451048136,-0.00008726646046852693
1685475392877721000,19.05772119140625,0.00019198621157556772,-0.00022689280740451068,-0.00019198621157556772
1685475392897721000,19.07772119140625,-0.00022689280740451068,0.00013962633966002613,-0.00027925267932005227
1685475392917721000,19.09772119140625,0.00008726646046852693,0.00027925267932005227,-0.00020943951676599681
1685475392937721000,19.11772119140625,-0.00013962633966002613,-0.0016929693520069122,-0.0012915435945615172
1685475392957721000,19.13772119140625,0.00020943951676599681,0.000052359879191499203,-0.0003490658418741077
1685475392977721000,19.15772119140625,0.000052359879191499203,0.000052359879191499203,-0.00012217304902151227
1685475392997721000,19.17772119140625,0.00029670598451048136,0.0007504915702156723,-0.00003490658491500653
1685475393017721000,19.19772119140625,-0.00003490658491500653,0.00027925267932005227,0.00010471975838299841
1685475393037721000,19.21772119140625,0.00012217304902151227,0.0002617993741296232,-0.00006981316983001307
1685475393057721000,19.23772119140625,0.00017453292093705386,0.00038397242315113544,0
1685475393077721000,19.25772119140625,-0.00008726646046852693,0.0004886921960860491,0.00024434609804302454
1685475393097721000,19.27772119140625,-0.00017453292093705386,0.0005410520825535059,0.0009250245057046413
1685475393117721000,19.29772119140625,0.0005759586347267032,0.0003665191470645368,0.00006981316983001307
1685475393137721000,19.31772119140625,-0.00031415926059708,-0.0003316125657875091,-0.0006632251315750182
1685475393157721000,19.33772119140625,0,0.0008203047327697277,-0.0006806784076616168
1685475393177721000,19.35772119140625,-0.000017453292457503267,-0.0004886921960860491,0.00027925267932005227
1685475393197721000,19.37772119140625,-0.00029670598451048136,0.0007504915702156723,-0.0006981316837482154
1685475393217721000,19.39772119140625,0.00024434609804302454,0.00029670598451048136,0.00015707963029854
1685475393237721000,19.41772119140625,-0.0006632251315750182,0.000052359879191499203,0.00003490658491500653
1685475393257721000,19.43772119140625,0.00029670598451048136,0.00003490658491500653,0.00015707963029854
1685475393277721000,19.45772119140625,0.00045378561480902135,0.0003316125657875091,0.0002617993741296232
1685475393297721000,19.47772119140625,-0.00020943951676599681,0.00003490658491500653,0.0008377580670639873
1685475393317721000,19.49772119140625,-0.00024434609804302454,-0.00022689280740451068,0.00003490658491500653
1685475393337721000,19.51772119140625,0.00006981316983001307,-0.0007853981805965304,-0.0004886921960860491
1685475393357721000,19.53772119140625,0.00022689280740451068,-0.0007853981805965304,0.00006981316983001307
1685475393377721000,19.55772119140625,-0.00017453292093705386,0.00003490658491500653,-0.00040142572834156454
1685475393397721000,19.57772119140625,0.00020943951676599681,0.00040142572834156454,-0.0003490658418741077
1685475393417721000,19.59772119140625,0.00019198621157556772,-0.0005235987482592463,-0.00043633230961859226
1685475393437721000,19.61772119140625,0.0003665191470645368,0.0005061454721726477,0.00024434609804302454
1685475393457721000,19.63772119140625,0.0002617993741296232,0.00020943951676599681,0.0007504915702156723
1685475393477721000,19.65772119140625,0.00012217304902151227,0.0003490658418741077,0.00013962633966002613
1685475393497721000,19.67772119140625,0.00017453292093705386,-0.0005410520825535059,-0.0005759586347267032
1685475393517721000,19.69772119140625,-0.00024434609804302454,-0.00041887903353199363,0.0003490658418741077
1685475393537721000,19.71772119140625,0,0.0011693706037476659,0.0002617993741296232
1685475393557721000,19.73772119140625,-0.00008726646046852693,-0.0010995573829859495,-0.0006981316837482154
1685475393577721000,19.75772119140625,-0.00013962633966002613,0.001029744278639555,0.0010821041651070118
1685475393597721000,19.77772119140625,-0.000715585018042475,0.00010471975838299841,-0.00038397242315113544
1685475393617721000,19.79772119140625,0.00010471975838299841,0.001117010717280209,0.0013962633674964309
1685475393637721000,19.81772119140625,-0.00012217304902151227,-0.00020943951676599681,0.0005410520825535059
1685475393657721000,19.83772119140625,-0.00041887903353199363,-0.0003316125657875091,-0.00019198621157556772
1685475393677721000,19.85772119140625,0.00017453292093705386,-0.0007679448463022709,-0.0006632251315750182
1685475393697721000,19.87772119140625,-0.00020943951676599681,-0.0009075712296180427,-0.0009250245057046413
1685475393717721000,19.89772119140625,0.00017453292093705386,-0.00031415926059708,-0.0015009831404313445
1685475393737721000,19.91772119140625,-0.0005759586347267032,0,0.00020943951676599681
1685475393757721000,19.93772119140625,-0.0004886921960860491,0.0005585053586401045,-0.0009599310578778386
1685475393777721000,19.95772119140625,0.00022689280740451068,-0.00041887903353199363,-0.0007853981805965304
1685475393797721000,19.97772119140625,-0.00006981316983001307,0.0005585053586401045,0.00003490658491500653
1685475393817721000,19.99772119140625,0.00024434609804302454,0.0004886921960860491,0.00024434609804302454
1685475393837721000,20.01772119140625,0.00010471975838299841,0.0004886921960860491,-0.00027925267932005227
1685475393857721000,20.03772119140625,-0.0005061454721726477,0.00010471975838299841,-0.0005759586347267032
1685475393877721000,20.05772119140625,-0.00003490658491500653,0.000017453292457503267,0.0007330382941290736
1685475393897721000,20.07772119140625,0.0005235987482592463,-0.00062831852119416,-0.0006457717972807586
1685475393917721000,20.09772119140625,-0.0006632251315750182,0.0005759586347267032,0.00019198621157556772
1685475393937721000,20.11772119140625,0.00013962633966002613,0.00015707963029854,0.00062831852119416
1685475393957721000,20.13772119140625,0,-0.0010471974965184927,-0.0011693706037476659
1685475393977721000,20.15772119140625,0.000052359879191499203,0.001029744278639555,-0.00024434609804302454
1685475393997721000,20.17772119140625,-0.00013962633966002613,0.0005061454721726477,-0.0002617993741296232
1685475394017722600,20.19772265625,-0.00040142572834156454,0.0002617993741296232,-0.000017453292457503267
1685475394037721000,20.21772119140625,-0.00027925267932005227,0.0017278759041801095,0.00012217304902151227
1685475394057721000,20.23772119140625,0.0003490658418741077,-0.00010471975838299841,0.00022689280740451068
1685475394077721000,20.25772119140625,-0.00020943951676599681,0.00012217304902151227,-0.0012391837080940604
1685475394097721000,20.27772119140625,0,0,-0.00017453292093705386
1685475394117721000,20.29772119140625,0.00045378561480902135,-0.0007853981805965304,-0.00029670598451048136
1685475394137721000,20.31772119140625,0,-0.00024434609804302454,0.00027925267932005227
1685475394157721000,20.33772119140625,0.00020943951676599681,0.0004886921960860491,0.00031415926059708
1685475394177721000,20.35772119140625,-0.00010471975838299841,0.0012915435945615172,0.00031415926059708
1685475394197721000,20.37772119140625,-0.000017453292457503267,0.00019198621157556772,-0.00013962633966002613
1685475394217721000,20.39772119140625,0.00024434609804302454,-0.0003665191470645368,-0.0008203047327697277
1685475394237721000,20.41772119140625,0.00027925267932005227,0.0005410520825535059,-0.00062831852119416
1685475394257721000,20.43772119140625,-0.0002617993741296232,0.00043633230961859226,-0.0002617993741296232
1685475394277721000,20.45772119140625,0.00024434609804302454,-0.00013962633966002613,-0.00031415926059708
1685475394297721000,20.47772119140625,0.00043633230961859226,0.00041887903353199363,0.00027925267932005227
1685475394317721000,20.49772119140625,-0.00038397242315113544,0.0006981316837482154,0.00038397242315113544
1685475394337721000,20.51772119140625,0.00024434609804302454,0.000017453292457503267,0.00045378561480902135
1685475394357721000,20.53772119140625,0.00013962633966002613,0.00038397242315113544,-0.000017453292457503267
1685475394377721000,20.55772119140625,0.00010471975838299841,-0.0005585053586401045,-0.0008028514566831291
1685475394397721000,20.57772119140625,-0.0006806784076616168,-0.0005759586347267032,-0.0004886921960860491
1685475394417721000,20.59772119140625,-0.00006981316983001307,-0.0007504915702156723,-0.00040142572834156454
1685475394437721000,20.61772119140625,-0.00013962633966002613,-0.00045378561480902135,0.0002617993741296232
1685475394457721000,20.63772119140625,-0.00022689280740451068,0.00015707963029854,0.00027925267932005227
1685475394477721000,20.65772119140625,0.00043633230961859226,-0.001029744278639555,-0.0012217304902151227
1685475394497721000,20.67772119140625,0.0002617993741296232,0.00008726646046852693,-0.0007330382941290736
1685475394517721000,20.69772119140625,-0.00062831852119416,0.00008726646046852693,-0.00013962633966002613
1685475394537721000,20.71772119140625,-0.0002617993741296232,0.0008726646192371845,-0.00045378561480902135
1685475394557721000,20.73772119140625,0.0003490658418741077,0.00031415926059708,0.000052359879191499203
1685475394577721000,20.75772119140625,0.00015707963029854,0.00047123889089562,-0.0005235987482592463
1685475394597721000,20.77772119140625,-0.0003316125657875091,0.00027925267932005227,0.00019198621157556772
1685475394617721000,20.79772119140625,-0.00031415926059708,-0.00040142572834156454,0.00015707963029854
1685475394637721000,20.81772119140625,-0.0007679448463022709,0.00040142572834156454,0.0002617993741296232
1685475394657721000,20.83772119140625,0.00062831852119416,0.00003490658491500653,-0.00017453292093705386
1685475394677721000,20.85772119140625,0.0006806784076616168,0.00003490658491500653,0.00038397242315113544
1685475394697721000,20.87772119140625,-0.0006632251315750182,-0.00027925267932005227,0.0009773843921720982
1685475394717721000,20.89772119140625,-0.000017453292457503267,-0.00008726646046852693,-0.0006632251315750182
1685475394737721000,20.91772119140625,-0.00024434609804302454,0.0003316125657875091,-0.00008726646046852693
1685475394757722600,20.93772265625,-0.00012217304902151227,0.0005410520825535059,0.00041887903353199363
1685475394777721000,20.95772119140625,-0.0005235987482592463,-0.0009250245057046413,-0.00017453292093705386
1685475394797721000,20.97772119140625,0.00024434609804302454,-0.00043633230961859226,-0.0005410520825535059
1685475394817721000,20.99772119140625,0.0005934119690209627,-0.0008028514566831291,-0.0006457717972807586
1685475394837721000,21.01772119140625,-0.00006981316983001307,-0.00047123889089562,-0.00043633230961859226
1685475394857721000,21.03772119140625,0.00019198621157556772,0.00003490658491500653,-0.00010471975838299841
1685475394877721000,21.05772119140625,0,-0.0002617993741296232,-0.0006806784076616168
1685475394897721000,21.07772119140625,0.00022689280740451068,-0.0007504915702156723,-0.0013788101496174932
1685475394917721000,21.09772119140625,0.00038397242315113544,0.0005410520825535059,-0.00038397242315113544
1685475394937721000,21.11772119140625,0.00029670598451048136,-0.00019198621157556772,-0.00024434609804302454
1685475394957721000,21.13772119140625,0.0006457717972807586,0,-0.0010646508308127522
1685475394977721000,21.15772119140625,-0.0003316125657875091,0.00047123889089562,-0.00017453292093705386
1685475394997721000,21.17772119140625,0.0007330382941290736,-0.0008552113431505859,-0.0008726646192371845
1685475395017722600,21.19772265625,0.00019198621157556772,0.00012217304902151227,-0.00022689280740451068
1685475395037721000,21.21772119140625,-0.00040142572834156454,0.00003490658491500653,0.00043633230961859226
1685475395057722600,21.23772265625,-0.00006981316983001307,0.00017453292093705386,-0.00029670598451048136
1685475395077721000,21.25772119140625,0.00008726646046852693,0.00003490658491500653,-0.00008726646046852693
1685475395097721000,21.27772119140625,-0.0003316125657875091,0.00006981316983001307,-0.000052359879191499203
1685475395117721000,21.29772119140625,-0.00010471975838299841,-0.000715585018042475,0.00010471975838299841
1685475395137721000,21.31772119140625,0.00022689280740451068,0.00013962633966002613,-0.000052359879191499203
1685475395157721000,21.33772119140625,0.00013962633966002613,0.0003316125657875091,-0.00038397242315113544
1685475395177721000,21.35772119140625,-0.00020943951676599681,-0.0010821041651070118,0.00006981316983001307
1685475395197721000,21.37772119140625,0.00008726646046852693,0.00038397242315113544,-0.0003316125657875091
1685475395217721000,21.39772119140625,-0.0005410520825535059,-0.00027925267932005227,-0.00010471975838299841
1685475395237721000,21.41772119140625,-0.000052359879191499203,-0.00003490658491500653,-0.00017453292093705386
1685475395257721000,21.43772119140625,0.00022689280740451068,-0.000052359879191499203,0.00003490658491500653
1685475395277721000,21.45772119140625,-0.00022689280740451068,-0.00045378561480902135,0.00024434609804302454
1685475395297721000,21.47772119140625,-0.00027925267932005227,0.0008552113431505859,0.0003665191470645368
1685475395317721000,21.49772119140625,0.00045378561480902135,0.00062831852119416,0.0008552113431505859
1685475395337721000,21.51772119140625,0.0003665191470645368,0.00008726646046852693,0
1685475395357721000,21.53772119140625,0.00038397242315113544,0.00031415926059708,-0.00022689280740451068
1685475395377721000,21.55772119140625,0.00010471975838299841,0.00012217304902151227,0.00020943951676599681
1685475395397721000,21.57772119140625,-0.00027925267932005227,-0.000715585018042475,0.000052359879191499203
1685475395417721000,21.59772119140625,-0.00043633230961859226,0.00017453292093705386,0.00015707963029854
1685475395437721000,21.61772119140625,0.00022689280740451068,-0.00022689280740451068,-0.0008377580670639873
1685475395457721000,21.63772119140625,-0.0008726646192371845,-0.00006981316983001307,-0.00008726646046852693
1685475395477721000,21.65772119140625,0.00019198621157556772,-0.00038397242315113544,-0.000052359879191499203
1685475395497721000,21.67772119140625,-0.0003490658418741077,-0.00003490658491500653,0.000052359879191499203
1685475395517721000,21.69772119140625,-0.0005934119690209627,-0.000052359879191499203,-0.00024434609804302454
1685475395537721000,21.71772119140625,0.00019198621157556772,0.0006806784076616168,-0.00043633230961859226
1685475395557721000,21.73772119140625,0,-0.00027925267932005227,-0.00020943951676599681
1685475395577721000,21.75772119140625,-0.000052359879191499203,0.00038397242315113544,0.00003490658491500653
1685475395597721000,21.77772119140625,-0.0003490658418741077,0.0002617993741296232,0.00031415926059708
1685475395617721000,21.79772119140625,0.00019198621157556772,-0.0007853981805965304,-0.0012740903766825795
1685475395637721000,21.81772119140625,-0.0005235987482592463,0.00038397242315113544,-0.00008726646046852693
1685475395657721000,21.83772119140625,0.00022689280740451068,0.00015707963029854,0.00043633230961859226
1685475395677721000,21.85772119140625,0.00010471975838299841,0.0006632251315750182,0.00013962633966002613
1685475395697721000,21.87772119140625,-0.0006632251315750182,0.00047123889089562,0.0011693706037476659
1685475395717721000,21.89772119140625,0.00024434609804302454,-0.0010821041651070118,-0.00062831852119416
1685475395737721000,21.91772119140625,0.00022689280740451068,0.0005061454721726477,-0.000017453292457503267
1685475395757721000,21.93772119140625,0,0.00013962633966002613,0.0005061454721726477
1685475395777721000,21.95772119140625,-0.00006981316983001307,-0.0009599310578778386,0.00010471975838299841
1685475395797721000,21.97772119140625,-0.00012217304902151227,0.0002617993741296232,-0.0005934119690209627
1685475395817721000,21.99772119140625,0.0006806784076616168,0.0005585053586401045,-0.0005759586347267032
1685475395837721000,22.01772119140625,-0.00024434609804302454,-0.00024434609804302454,-0.0005759586347267032
1685475395857721000,22.03772119140625,-0.00017453292093705386,0.00043633230961859226,0.00010471975838299841
1685475395877721000,22.05772119140625,0.0006108652451075613,0.0009250245057046413,0.00013962633966002613
1685475395897721000,22.07772119140625,0,0.00012217304902151227,0.00019198621157556772
1685475395917721000,22.09772119140625,-0.00010471975838299841,-0.00006981316983001307,-0.00094247778179124
1685475395937721000,22.11772119140625,-0.00041887903353199363,0.00022689280740451068,-0.0007330382941290736
1685475395957721000,22.13772119140625,-0.0002617993741296232,-0.0007330382941290736,-0.0012740903766825795
1685475395977721000,22.15772119140625,-0.00013962633966002613,0.00047123889089562,0.00008726646046852693
1685475395997721000,22.17772119140625,-0.00012217304902151227,-0.00019198621157556772,0.0005759586347267032
1685475396017721000,22.19772119140625,-0.0004886921960860491,0.0013264502631500363,0.00010471975838299841
1685475396037721000,22.21772119140625,-0.00047123889089562,0.0005934119690209627,-0.00022689280740451068
1685475396057721000,22.23772119140625,0.00017453292093705386,0.0005235987482592463,0.0006632251315750182
1685475396077721000,22.25772119140625,-0.00022689280740451068,-0.0005585053586401045,0
1685475396097721000,22.27772119140625,0.00045378561480902135,-0.00003490658491500653,0.0003490658418741077
1685475396117721000,22.29772119140625,0.00013962633966002613,-0.0003665191470645368,-0.0011344640515744686
1685475396137721000,22.31772119140625,0.0011519172694534063,0.00062831852119416,-0.00015707963029854
1685475396157721000,22.33772119140625,0.0003665191470645368,-0.0007853981805965304,0.0004886921960860491
1685475396177721000,22.35772119140625,0.0002617993741296232,-0.00043633230961859226,0.00013962633966002613
1685475396197721000,22.37772119140625,0.00017453292093705386,0.00031415926059708,-0.00020943951676599681
1685475396217721000,22.39772119140625,0.00022689280740451068,0.0007853981805965304,-0.00038397242315113544
1685475396237721000,22.41772119140625,-0.00019198621157556772,0.00022689280740451068,0.00062831852119416
1685475396257721000,22.43772119140625,-0.000052359879191499203,0.00017453292093705386,-0.00010471975838299841
1685475396277721000,22.45772119140625,-0.00019198621157556772,0.000017453292457503267,0.0007679448463022709
1685475396297721000,22.47772119140625,-0.000017453292457503267,-0.0005235987482592463,0.0005759586347267032
1685475396317721000,22.49772119140625,-0.00015707963029854,-0.000017453292457503267,-0.00017453292093705386
1685475396337721000,22.51772119140625,-0.0002617993741296232,0.0005410520825535059,0.0005759586347267032
1685475396357721000,22.53772119140625,0.00024434609804302454,-0.00008726646046852693,0.00015707963029854
1685475396377721000,22.55772119140625,0.0003665191470645368,0.00047123889089562,0.00041887903353199363
1685475396397721000,22.57772119140625,-0.00019198621157556772,0.00022689280740451068,0.00038397242315113544
1685475396417721000,22.59772119140625,0.00027925267932005227,-0.0005061454721726477,0.0005759586347267032
1685475396437721000,22.61772119140625,0.0003316125657875091,0.0005061454721726477,0.0012042771559208632
1685475396457721000,22.63772119140625,-0.00020943951676599681,-0.00017453292093705386,0.00040142572834156454
1685475396477721000,22.65772119140625,-0.00003490658491500653,0,-0.00013962633966002613
1685475396497721000,22.67772119140625,-0.0006806784076616168,-0.00022689280740451068,-0.00041887903353199363
1685475396517721000,22.69772119140625,-0.000052359879191499203,0.00043633230961859226,-0.000017453292457503267
1685475396537721000,22.71772119140625,0.0005934119690209627,-0.00006981316983001307,0.0003316125657875091
1685475396557721000,22.73772119140625,-0.00003490658491500653,0.0005235987482592463,0.00012217304902151227
1685475396577721000,22.75772119140625,-0.0006632251315750182,-0.00041887903353199363,-0.0005759586347267032
1685475396597721000,22.77772119140625,0.0005061454721726477,0.00012217304902151227,-0.00047123889089562
1685475396617721000,22.79772119140625,0.00017453292093705386,0.00020943951676599681,0.0011519172694534063
1685475396637721000,22.81772119140625,0.00022689280740451068,0.00041887903353199363,0.001029744278639555
1685475396657721000,22.83772119140625,-0.00008726646046852693,0.00040142572834156454,0.0008901178953237832
1685475396677721000,22.85772119140625,-0.00012217304902151227,0.00013962633966002613,-0.00015707963029854
1685475396697721000,22.87772119140625,0.00038397242315113544,0.00006981316983001307,-0.00012217304902151227
1685475396717721000,22.89772119140625,0.000017453292457503267,0,0.00027925267932005227
1685475396737721000,22.91772119140625,0.00031415926059708,-0.000017453292457503267,0.0007679448463022709
1685475396757721000,22.93772119140625,-0.00038397242315113544,0,0.00047123889089562
1685475396777721000,22.95772119140625,-0.00010471975838299841,0.00043633230961859226,0.00022689280740451068
1685475396797721000,22.97772119140625,0.0006981316837482154,-0.00017453292093705386,-0.00010471975838299841
1685475396817721000,22.99772119140625,-0.0004886921960860491,0.000052359879191499203,0.000052359879191499203
1685475396837721000,23.01772119140625,-0.00015707963029854,-0.0010122909443452954,-0.00015707963029854
1685475396857721000,23.03772119140625,0.00022689280740451068,0.000052359879191499203,-0.00024434609804302454
1685475396877721000,23.05772119140625,-0.00027925267932005227,0.0012217304902151227,-0.000715585018042475
1685475396897721000,23.07772119140625,0.0002617993741296232,0.00031415926059708,-0.0008028514566831291
1685475396917721000,23.09772119140625,0.0009948377264663577,0.00024434609804302454,0.0012391837080940604
1685475396937721000,23.11772119140625,-0.0007679448463022709,-0.00031415926059708,-0.0007504915702156723
1685475396957721000,23.13772119140625,-0.0003316125657875091,0.00008726646046852693,-0.00017453292093705386
1685475396977721000,23.15772119140625,-0.0006457717972807586,0.00041887903353199363,-0.00019198621157556772
1685475396997721000,23.17772119140625,0.00038397242315113544,0.00017453292093705386,0.00006981316983001307
