time,seconds_elapsed,z,y,x
1685475373856887300,0.03688720703125,9.830850601196289,-0.03502238169312477,0.009059659205377102
1685475373876870000,0.056869873046875,9.832919120788574,-0.04279874637722969,-0.002882618922740221
1685475373896871400,0.076871337890625,9.825919151306152,-0.03912125527858734,-0.0006895300466567278
1685475373916871400,0.096871337890625,9.821657180786133,-0.03599921613931656,0.01333091501146555
1685475373936870000,0.116869873046875,9.823965072631836,-0.0279642753303051,-0.0035338415764272213
1685475373956871400,0.136871337890625,9.818256378173828,-0.02452620305120945,-0.004979939665645361
1685475373976871400,0.156871337890625,9.801852226257324,-0.03415089473128319,0.0025378537829965353
1685475373996871400,0.176871337890625,9.826359748840332,-0.03148854151368141,-0.003945644479244947
1685475374016871400,0.196871337890625,9.813152313232422,-0.03988740220665932,-0.013024456799030304
1685475374036871400,0.216871337890625,9.82027816772461,-0.044177811592817307,0.006244078278541565
1685475374056871400,0.236871337890625,9.818142890930176,-0.045010991394519806,-0.008111555129289627
1685475374076871400,0.256871337890625,9.801162719726562,-0.031670499593019485,0.015121777541935444
1685475374096871400,0.276871337890625,9.816667556762695,-0.035903450101614,-0.012057199142873287
1685475374116871400,0.296871337890625,9.806228637695312,-0.03740701079368591,-0.004252102226018906
1685475374136870000,0.316869873046875,9.804150581359863,-0.03373908996582031,0.0026431987062096596
1685475374156870000,0.336869873046875,9.804773330688477,-0.043900080025196075,0.00397437484934926
1685475374176870000,0.356869873046875,9.816523551940918,-0.03503195941448212,0.001944091753102839
1685475374196871400,0.376871337890625,9.810959815979004,-0.03518518805503845,-0.008973468095064163
1685475374216870000,0.396869873046875,9.820603370666504,-0.05180094763636589,-0.001417367486283183
1685475374236870000,0.416869873046875,9.813689231872559,-0.01444182451814413,-0.004156333860009909
1685475374256870000,0.436869873046875,9.786911964416504,-0.03978205472230911,-0.0018770541064441204
1685475374276870000,0.456869873046875,9.800444602966309,-0.025933992117643356,0.006445190869271755
1685475374296870000,0.476869873046875,9.796268463134766,-0.039896976202726364,0.003945644479244947
1685475374316870000,0.496869873046875,9.816638946533203,-0.037167586386203766,0.0015801731497049332
1685475374336870000,0.516869873046875,9.8185453414917,-0.02843353897333145,-0.002384624909609556
1685475374356870000,0.536869873046875,9.802665710449219,-0.03887225687503815,-0.0015705963596701622
1685475374376870000,0.556869873046875,9.801555633544922,-0.0195462629199028,-0.0005075707449577749
1685475374396870000,0.576869873046875,9.805193901062012,-0.03369120880961418,-0.00039264908991754055
1685475374416870000,0.596869873046875,9.812108993530273,-0.026843789964914322,-0.00010534487955737859
1685475374436870000,0.616869873046875,9.804935455322266,-0.03156515583395958,-0.001417367486283183
1685475374456870000,0.636869873046875,9.810002326965332,-0.03929363936185837,-0.012717999517917633
1685475374476870000,0.656869873046875,9.806554794311523,-0.03047339990735054,0.0025857379660010338
1685475374496870000,0.676869873046875,9.791135787963867,-0.04053862392902374,-0.012976572848856449
1685475374516870000,0.696869873046875,9.811131477355957,-0.03161304071545601,-0.012928688898682594
1685475374536870000,0.716869873046875,9.797063827514648,-0.026997018605470657,-0.005439626052975655
1685475374556870000,0.736869873046875,9.80495548248291,-0.022333113476634026,0.009165003895759583
1685475374576870000,0.756869873046875,9.822518348693848,-0.031411927193403244,0.0017621323931962252
1685475374596870000,0.776869873046875,9.807090759277344,-0.023453600704669952,-0.0057460842654109
1685475374616870000,0.796869873046875,9.803988456726074,-0.02632664144039154,0.0010917560430243611
1685475374636871400,0.816871337890625,9.806851387023926,-0.03386358916759491,0.0037732617929577827
1685475374656870000,0.836869873046875,9.80756950378418,-0.029917944222688675,-0.002920926082879305
1685475374676870000,0.856869873046875,9.805644989013672,-0.0303297471255064,-0.004443638492375612
1685475374696870000,0.876869873046875,9.792533874511719,-0.032407913357019424,0.007881712168455124
1685475374716870000,0.896869873046875,9.807933807373047,-0.03891056403517723,-0.0067995330318808556
1685475374736870000,0.916869873046875,9.798203468322754,-0.02177765779197216,0.016606181859970093
1685475374756870000,0.936869873046875,9.801219940185547,-0.026929982006549835,-0.00019153613538946956
1685475374776870000,0.956869873046875,9.81356430053711,-0.028605923056602478,-0.004271255806088448
1685475374796870000,0.976869873046875,9.790139198303223,-0.02648944780230522,0.005832275375723839
1685475374816870000,0.996869873046875,9.81046199798584,-0.03265691176056862,0.01099417358636856
1685475374836870000,1.016869873046875,9.79263973236084,-0.022342689335346222,0.0013886369997635484
1685475374856870000,1.036869873046875,9.809638023376465,-0.02687252126634121,-0.005717353895306587
1685475374876870000,1.056869873046875,9.790484428405762,-0.02433466538786888,-0.0012258312199264765
1685475374896871400,1.076871337890625,9.809168815612793,-0.03076070360839367,0.0027006594464182854
1685475374916870000,1.096869873046875,9.806832313537598,-0.026096798479557037,0.0006607996765524149
1685475374936870000,1.116869873046875,9.799266815185547,-0.0349457673728466,0.00033518823329359293
1685475374956870000,1.136869873046875,9.791375160217285,-0.029994558542966843,-0.012267890386283398
1685475374976870000,1.156869873046875,9.801362991333008,-0.03463931009173393,0.0008714894065633416
1685475374996870000,1.176869873046875,9.789335250854492,-0.029649794101715088,0.009117119945585728
1685475375016870000,1.196869873046875,9.795090675354004,-0.03116292878985405,0.00274854339659214
1685475375036870000,1.216869873046875,9.79890251159668,-0.0279642753303051,0.005305550992488861
1685475375056870000,1.236869873046875,9.799324035644531,-0.038067806512117386,-0.0013024457730352879
1685475375076870000,1.256869873046875,9.789536476135254,-0.03106716088950634,-0.002461239229887724
1685475375096870000,1.276869873046875,9.806507110595703,-0.027542896568775177,0.00042137951822951436
1685475375116870000,1.296869873046875,9.7796630859375,-0.02846227027475834,-0.0007469909032806754
1685475375136870000,1.316869873046875,9.809197425842285,-0.05133168399333954,-0.01708502322435379
1685475375156870000,1.336869873046875,9.789555549621582,-0.038757335394620895,-0.008092401549220085
1685475375176870000,1.356869873046875,9.785379409790039,-0.04639005288481712,0.0036200329195708036
1685475375196870000,1.376869873046875,9.804734230041504,-0.0336529016494751,-0.004721365869045258
1685475375216871400,1.396871337890625,9.803193092346191,-0.02803131379187107,0.003993528429418802
1685475375236870000,1.416869873046875,9.794210433959961,-0.03995443880558014,0.0020207061897963285
1685475375256870000,1.436869873046875,9.787362098693848,-0.03848918527364731,0.004338293336331844
1685475375276870000,1.456869873046875,9.798308372497559,-0.01751597970724106,0.0003543418715707958
1685475375296870000,1.476869873046875,9.795158386230469,-0.03983951732516289,-0.003390189725905657
1685475375316870000,1.496869873046875,9.790389060974121,-0.03383485972881317,0.0004405330982990563
1685475375336870000,1.516869873046875,9.796220779418945,-0.025608381256461143,0.0063973069190979
1685475375356870000,1.536869873046875,9.79512882232666,-0.033097442239522934,-0.007862558588385582
1685475375376870000,1.556869873046875,9.800224304199219,-0.026843789964914322,-0.003840299556031823
1685475375396870000,1.576869873046875,9.798816680908203,-0.03693774342536926,0.0051140147261321545
1685475375416870000,1.596869873046875,9.786911964416504,-0.029467834159731865,-0.0037636850029230118
1685475375436870000,1.616869873046875,9.804006576538086,-0.041410114616155624,-0.0039169141091406345
1685475375456870000,1.636869873046875,9.790665626525879,-0.030894778668880463,0.0034572272561490536
1685475375476871400,1.656871337890625,9.79841423034668,-0.03244622051715851,0.00968215148895979
1685475375496870000,1.676869873046875,9.801066398620605,-0.03691859170794487,-0.0015035585965961218
1685475375516870000,1.696869873046875,9.799199104309082,-0.01498770248144865,0.0025474305730313063
1685475375536870000,1.716869873046875,9.793022155761719,-0.027447128668427467,0.0010821791365742683
1685475375556870000,1.736869873046875,9.803691864013672,-0.034869153052568436,0.00529597420245409
1685475375576870000,1.756869873046875,9.79072380065918,-0.027360936626791954,0.012938265688717365
1685475375596870000,1.776869873046875,9.79067611694336,-0.03241749107837677,0.020542249083518982
1685475375616870000,1.796869873046875,9.787219047546387,-0.02016875520348549,-0.0117890490218997
1685475375636870000,1.816869873046875,9.796795845031738,-0.023309947922825813,-0.006090848706662655
1685475375656870000,1.836869873046875,9.806258201599121,-0.02978386916220188,-0.00771890627220273
1685475375676870000,1.856869873046875,9.801248550415039,-0.034917037934064865,-0.0031507695093750954
1685475375696870000,1.876869873046875,9.803815841674805,-0.029467834159731865,0.00045968673657625914
1685475375716870000,1.896869873046875,9.800348281860352,-0.05675215646624565,0.0037732617929577827
1685475375736870000,1.916869873046875,9.80091381072998,-0.04453215003013611,-0.010084377601742744
1685475375756870000,1.936869873046875,9.79427719116211,-0.02978386916220188,0.0075465235859155655
1685475375776870000,1.956869873046875,9.78891372680664,-0.03185245767235756,-0.0013503297232091427
1685475375796870000,1.976869873046875,9.788071632385254,-0.04269340634346008,-0.0029879636131227016
1685475375816870000,1.996869873046875,9.785006523132324,-0.02715982496738434,0.002308010356500745
1685475375836870000,2.016869873046875,9.808345794677734,-0.034725502133369446,-0.001283292076550424
1685475375856870000,2.036869873046875,9.780725479125977,-0.02372175082564354,-0.0004309563082642853
1685475375876870000,2.056869873046875,9.772833824157715,-0.036200329661369324,-0.00419464148581028
1685475375896870000,2.076869873046875,9.779557228088379,-0.04665820300579071,-0.005573701579123735
1685475375916870000,2.096869873046875,9.810079574584961,-0.025886109098792076,-0.012210427783429623
1685475375936870000,2.116869873046875,9.815911293029785,-0.027284322306513786,0.0018483237363398075
1685475375956870000,2.136869873046875,9.782123565673828,-0.02656606212258339,0.005707777105271816
1685475375976870000,2.156869873046875,9.813727378845215,-0.025503035634756088,-0.0015897499397397041
1685475375996870000,2.176869873046875,9.79580020904541,-0.023989900946617126,-0.009509769268333912
1685475376016870000,2.196869873046875,9.79202651977539,-0.028845341876149178,-0.005880159325897694
1685475376036870000,2.216869873046875,9.767624855041504,-0.026556486263871193,0.003687070682644844
1685475376056870000,2.236869873046875,9.80838394165039,-0.023568522185087204,-0.00003830722562270239
1685475376076870000,2.256869873046875,9.789650917053223,-0.029898790642619133,-0.013148955069482327
1685475376096870000,2.276869873046875,9.79578971862793,-0.040892962366342545,0.0059088896960020065
1685475376116870000,2.296869873046875,9.80130672454834,-0.03173753619194031,0.005228936672210693
1685475376136870000,2.316869873046875,9.794698715209961,-0.043181825429201126,0.0035338415764272213
1685475376156870000,2.336869873046875,9.796565055847168,-0.03749319911003113,-0.007402871735394001
1685475376176870000,2.356869873046875,9.79192066192627,-0.033729515969753265,0.002853888552635908
1685475376196870000,2.376869873046875,9.788511276245117,-0.023702597245573997,0.0013503297232091427
1685475376216870000,2.396869873046875,9.790063858032227,-0.0376751609146595,-0.016903065145015717
1685475376236870000,2.416869873046875,9.790312767028809,-0.02412397600710392,-0.0034476504661142826
1685475376256870000,2.436869873046875,9.801191329956055,-0.023003490641713142,0.009165003895759583
1685475376276870000,2.456869873046875,9.810030937194824,-0.01928768865764141,0.006962338462471962
1685475376296870000,2.476869873046875,9.792189598083496,-0.03563529998064041,-0.010295066982507706
1685475376316870000,2.496869873046875,9.806640625,-0.02582864835858345,-0.001934514963068068
1685475376336870000,2.516869873046875,9.80281925201416,-0.042003877460956573,0.002432508859783411
1685475376356870000,2.536869873046875,9.800971031188965,-0.02896026335656643,-0.015744270756840706
1685475376376870000,2.556869873046875,9.803997039794922,-0.026288334280252457,-0.0013982137897983193
1685475376396870000,2.576869873046875,9.793998718261719,-0.03241749107837677,0.003227383829653263
1685475376416870000,2.596869873046875,9.788089752197266,-0.042616792023181915,-0.0023558945395052433
1685475376436870000,2.616869873046875,9.789114952087402,-0.033758245408535004,-0.0010726023465394974
1685475376456870000,2.636869873046875,9.80189037322998,-0.03703351318836212,0.004338293336331844
1685475376476870000,2.656869873046875,9.792218208312988,-0.03111504577100277,-0.01379060186445713
1685475376496870000,2.676869873046875,9.79268741607666,-0.03230256959795952,-0.007374141365289688
1685475376516870000,2.696869873046875,9.80597972869873,-0.03513730317354202,-0.0013599065132439137
1685475376536870000,2.716869873046875,9.790905952453613,-0.02883576601743698,0.008657433092594147
1685475376556870000,2.736869873046875,9.792255401611328,-0.029726408421993256,-0.0024899698328226805
1685475376576870000,2.756869873046875,9.788166999816895,-0.036458905786275864,0.01534204464405775
1685475376596870000,2.776869873046875,9.786758422851562,-0.02381751872599125,0.0036104561295360327
1685475376616870000,2.796869873046875,9.794267654418945,-0.03206314891576767,0.004539406392723322
1685475376636870000,2.816869873046875,9.793069839477539,-0.022428881376981735,-0.00849462766200304
1685475376656870000,2.836869873046875,9.810528755187988,-0.03286759927868843,-0.0054683564230799675
1685475376676870000,2.856869873046875,9.8038911819458,-0.02063801884651184,-0.006531381979584694
1685475376696870000,2.876869873046875,9.788674354553223,-0.03232172504067421,0.000957680691499263
1685475376716870000,2.896869873046875,9.783100128173828,-0.035903450101614,-0.0021452046930789948
1685475376736870000,2.916869873046875,9.796546936035156,-0.03194822743535042,0.008504204452037811
1685475376756870000,2.936869873046875,9.814167976379395,-0.034562695771455765,0.007431602105498314
1685475376776870000,2.956869873046875,9.804849624633789,-0.03521391749382019,0.006856993772089481
1685475376796870000,2.976869873046875,9.802369117736816,-0.03889141231775284,0.0010726023465394974
1685475376816870000,2.996869873046875,9.799983978271484,-0.03477338328957558,0.0013311761431396008
1685475376836870000,3.016869873046875,9.79104995727539,-0.018904617056250572,-0.0018004396697506309
1685475376856870000,3.036869873046875,9.781357765197754,-0.04148672893643379,-0.007996633648872375
1685475376876870000,3.056869873046875,9.800214767456055,-0.029582755640149117,0.0010534487664699554
1685475376896870000,3.076869873046875,9.817261695861816,-0.036813244223594666,0.003869029926136136
1685475376916870000,3.096869873046875,9.797935485839844,-0.042003877460956573,-0.003888183506205678
1685475376936870000,3.116869873046875,9.799027442932129,-0.012401965446770191,0.013618219643831253
1685475376956870000,3.136869873046875,9.800482749938965,-0.03820187970995903,0.008532934822142124
1685475376976870000,3.156869873046875,9.804112434387207,-0.02220861427485943,-0.0010342950699850917
1685475376996870000,3.176869873046875,9.785964012145996,-0.03270479664206505,-0.0025857379660010338
1685475377016870000,3.196869873046875,9.808804512023926,-0.03983951732516289,-0.00883939303457737
1685475377036870000,3.216869873046875,9.804361343383789,-0.027121517807245255,-0.0017908628797158599
1685475377056870000,3.236869873046875,9.793395042419434,-0.03380613029003143,0.014844050630927086
1685475377076870000,3.256869873046875,9.795531272888184,-0.03328897804021835,-0.0071634515188634396
1685475377096871400,3.276871337890625,9.807886123657227,-0.02531149983406067,0.010572794824838638
1685475377116870000,3.296869873046875,9.806564331054688,-0.038470033556222916,-0.005592855159193277
1685475377136870000,3.316869873046875,9.7944974899292,-0.03672705590724945,0.011865663342177868
1685475377156870000,3.336869873046875,9.786941528320312,-0.03630567714571953,-0.0055545479990541935
1685475377176870000,3.356869873046875,9.805826187133789,-0.03618117421865463,0.0020015526097267866
1685475377196870000,3.376869873046875,9.791556358337402,-0.03129700571298599,-0.006550535559654236
1685475377216870000,3.396869873046875,9.795138359069824,-0.04009808972477913,-0.0012545617064461112
1685475377236871400,3.416871337890625,9.791059494018555,-0.018942924216389656,0.00859039556235075
1685475377256870000,3.436869873046875,9.798873901367188,-0.038565799593925476,0.00242293206974864
1685475377276870000,3.456869873046875,9.796049118041992,-0.03230256959795952,-0.004673481918871403
1685475377296870000,3.476869873046875,9.800376892089844,-0.03623863682150841,0.000967257481534034
1685475377316870000,3.496869873046875,9.792811393737793,-0.03784754127264023,0.01124317105859518
1685475377336870000,3.516869873046875,9.780284881591797,-0.025819070637226105,0.0017334020230919123
1685475377356870000,3.536869873046875,9.796201705932617,-0.039370253682136536,-0.0020398597698658705
1685475377376870000,3.556869873046875,9.806066513061523,-0.03097139298915863,0.009672574698925018
1685475377396870000,3.576869873046875,9.782161712646484,-0.03569275885820389,-0.001924938173033297
1685475377416870000,3.596869873046875,9.803240776062012,-0.027265168726444244,0.00287304213270545
1685475377436870000,3.616869873046875,9.797696113586426,-0.032072726637125015,-0.0004022258799523115
1685475377456870000,3.636869873046875,9.806285858154297,-0.04234864190220833,-0.00013407529331743717
1685475377476870000,3.656869873046875,9.784058570861816,-0.04118984565138817,-0.00024899697746150196
1685475377496870000,3.676869873046875,9.795387268066406,-0.036458905786275864,0.020178331062197685
1685475377516870000,3.696869873046875,9.791183471679688,-0.05345773696899414,-0.006110002286732197
1685475377536870000,3.716869873046875,9.789268493652344,-0.03148854151368141,0.018167201429605484
1685475377556870000,3.736869873046875,9.800847053527832,-0.037569813430309296,0.010850521735846996
1685475377576870000,3.756869873046875,9.805865287780762,-0.029448680579662323,-0.0013407529331743717
1685475377596870000,3.776869873046875,9.794036865234375,-0.0335283987224102,-0.0030741551890969276
1685475377616870000,3.796869873046875,9.78853988647461,-0.029822176322340965,-0.002432508859783411
1685475377636870000,3.816869873046875,9.791394233703613,-0.028854919597506523,-0.001608903519809246
1685475377656870000,3.836869873046875,9.79419994354248,-0.041007883846759796,-0.00005746084207203239
1685475377676870000,3.856869873046875,9.801774978637695,-0.017506403848528862,-0.003572148969396949
1685475377696870000,3.876869873046875,9.77125358581543,-0.04038539528846741,-0.001924938173033297
1685475377716870000,3.896869873046875,9.787276268005371,-0.0393415205180645,-0.0031890766695141792
1685475377736870000,3.916869873046875,9.784039497375488,-0.04827668517827988,0.0023463177494704723
1685475377756870000,3.936869873046875,9.800922393798828,-0.03733997046947479,-0.002882618922740221
1685475377776870000,3.956869873046875,9.789498329162598,-0.03073197416961193,-0.010333375073969364
1685475377796870000,3.976869873046875,9.803565979003906,-0.03332728520035744,-0.01098459679633379
1685475377816870000,3.996869873046875,9.80659294128418,-0.023568522185087204,0.0034763808362185955
1685475377836870000,4.016869873046875,9.797015190124512,-0.03943729028105736,0.013426683843135834
1685475377856870000,4.036869873046875,9.781204223632812,-0.024660278111696243,0.00794874969869852
1685475377876870000,4.056869873046875,9.786050796508789,-0.022802377119660378,0.010352528654038906
1685475377896870000,4.076869873046875,9.784096717834473,-0.030837317928671837,0.004223371855914593
1685475377916870000,4.096869873046875,9.784479141235352,-0.03258029371500015,-0.007316680625081062
1685475377936870000,4.116869873046875,9.787429809570312,-0.028337771072983742,0.003361459355801344
1685475377956870000,4.136869873046875,9.78597354888916,-0.01947922445833683,0.011836932972073555
1685475377976870000,4.156869873046875,9.798184394836426,-0.02647029235959053,-0.0016855180729180574
1685475377996870000,4.176869873046875,9.789469718933105,-0.04099830985069275,-0.00452025281265378
1685475378016870000,4.196869873046875,9.798452377319336,-0.02992752008140087,-0.0051044379360973835
1685475378036870000,4.216869873046875,9.801661491394043,-0.02111686021089554,-0.00020111293997615576
1685475378056870000,4.236869873046875,9.797475814819336,-0.026403255760669708,-0.0031794998794794083
1685475378076870000,4.256869873046875,9.79907512664795,-0.03998316824436188,0.00759440753608942
1685475378096870000,4.276869873046875,9.780858993530273,-0.03156515583395958,-0.0023463177494704723
1685475378116870000,4.296869873046875,9.784518241882324,-0.039063792675733566,0.012976572848856449
1685475378136870000,4.316869873046875,9.784317016601562,-0.02919010818004608,0.0009864111198112369
1685475378156870000,4.336869873046875,9.79525375366211,-0.027753585949540138,-0.017946936190128326
1685475378176870000,4.356869873046875,9.792831420898438,-0.030013712123036385,-0.008734048344194889
1685475378196870000,4.376869873046875,9.796212196350098,-0.035558685660362244,-0.013426683843135834
1685475378216870000,4.396869873046875,9.78073501586914,-0.052452173084020615,0.01888546347618103
1685475378236870000,4.416869873046875,9.788761138916016,-0.03530968725681305,0.0020494365599006414
1685475378256870000,4.436869873046875,9.795722961425781,-0.03476380929350853,-0.01138682384043932
1685475378276870000,4.456869873046875,9.780113220214844,-0.02606806717813015,-0.012526463717222214
1685475378296870000,4.476869873046875,9.803624153137207,-0.02786850742995739,-0.007479486055672169
1685475378316870000,4.496869873046875,9.786846160888672,-0.041266459971666336,0.001465251436457038
1685475378336870000,4.516869873046875,9.784470558166504,-0.0286729596555233,0.006464344449341297
1685475378356870000,4.536869873046875,9.77748966217041,-0.031574733555316925,-0.002432508859783411
1685475378376870000,4.556869873046875,9.793281555175781,-0.03182372823357582,-0.005688623525202274
1685475378396870000,4.576869873046875,9.796469688415527,-0.03308786824345589,-0.0036296097096055746
1685475378416870000,4.596869873046875,9.809465408325195,-0.0204943660646677,-0.008360552601516247
1685475378436870000,4.616869873046875,9.801996231079102,-0.03517561033368111,-0.0060429647564888
1685475378456870000,4.636869873046875,9.79633617401123,-0.025675419718027115,-0.006684611551463604
1685475378476870000,4.656869873046875,9.800329208374023,-0.03469676896929741,-0.002470816019922495
1685475378496870000,4.676869873046875,9.805721282958984,-0.031124621629714966,0.002231396036222577
1685475378516870000,4.696869873046875,9.786596298217773,-0.038996756076812744,-0.00013407529331743717
1685475378536870000,4.716869873046875,9.793558120727539,-0.04434061422944069,0.0035817257594317198
1685475378556870000,4.736869873046875,9.79464054107666,-0.028423961251974106,0.003246537409722805
1685475378576870000,4.756869873046875,9.766925811767578,-0.03652593865990639,0.00649307481944561
1685475378596870000,4.776869873046875,9.794401168823242,-0.0334039032459259,-0.0027198130264878273
1685475378616870000,4.796869873046875,9.788252830505371,-0.03469676896929741,0.017927782610058784
1685475378636870000,4.816869873046875,9.783570289611816,-0.03239833936095238,0.011348516680300236
1685475378656870000,4.836869873046875,9.79660415649414,-0.03704308718442917,-0.01318726222962141
1685475378676870000,4.856869873046875,9.793022155761719,-0.03485957533121109,-0.010084377601742744
1685475378696870000,4.876869873046875,9.795703887939453,-0.03349967300891876,0.0063781533390283585
1685475378716870000,4.896869873046875,9.792859077453613,-0.034754231572151184,0.0027964275795966387
1685475378736870000,4.916869873046875,9.798806190490723,-0.029870059341192245,-0.0029592332430183887
1685475378756870000,4.936869873046875,9.783732414245605,-0.03764642775058746,-0.0009193734731525183
1685475378776870000,4.956869873046875,9.778820037841797,-0.03518518805503845,0.009423578158020973
1685475378796870000,4.976869873046875,9.791316986083984,-0.02336740866303444,-0.011367670260369778
1685475378816870000,4.996869873046875,9.793835639953613,-0.03999274596571922,-0.015207969583570957
1685475378836870000,5.016869873046875,9.78935432434082,-0.04093126952648163,-0.0004692635266110301
1685475378856870000,5.036869873046875,9.797293663024902,-0.014671668410301208,-0.015619771555066109
1685475378876870000,5.056869873046875,9.776521682739258,-0.03192907199263573,0.01666364260017872
1685475378896870000,5.076869873046875,9.803729057312012,-0.0350702665746212,-0.009806649759411812
1685475378916871400,5.096871337890625,9.78423023223877,-0.028242003172636032,-0.009299078956246376
1685475378936871400,5.116871337890625,9.78641414642334,-0.028146235272288322,0.001608903519809246
1685475378956870000,5.136869873046875,9.781156539916992,-0.03213018923997879,-0.007029375992715359
1685475378976870000,5.156869873046875,9.788549423217773,-0.021001938730478287,0.011674127541482449
1685475378996870000,5.176869873046875,9.79704475402832,-0.03256114199757576,-0.0070772599428892136
1685475379016870000,5.196869873046875,9.804811477661133,-0.0433637797832489,0.006100425496697426
1685475379036870000,5.216869873046875,9.813755989074707,-0.05488467961549759,0.0068282634019851685
1685475379056870000,5.236869873046875,9.789928436279297,-0.020762518048286438,-0.004252102226018906
1685475379076870000,5.256869873046875,9.794410705566406,-0.0390925258398056,0
1685475379096870000,5.276869873046875,9.781338691711426,-0.03346136584877968,0.00033518823329359293
1685475379116870000,5.296869873046875,9.794334411621094,-0.03398808836936951,0.000976834329776466
1685475379136870000,5.316869873046875,9.793089866638184,-0.032599449157714844,0.012928688898682594
1685475379156870000,5.336869873046875,9.795483589172363,-0.0253593847155571,0.013129801489412785
1685475379176870000,5.356869873046875,9.800127983093262,-0.04043327644467354,-0.00958638358861208
1685475379196870000,5.376869873046875,9.791653633117676,-0.04504929855465889,-0.0018962076865136623
1685475379216870000,5.396869873046875,9.78828239440918,-0.027351360768079758,-0.0020781669300049543
1685475379236870000,5.416869873046875,9.804476737976074,-0.02402820810675621,-0.0034763808362185955
1685475379256870000,5.436869873046875,9.782899856567383,-0.03426581621170044,-0.0035338415764272213
1685475379276870000,5.456869873046875,9.783273696899414,-0.026834214106202126,0.0009097966831177473
1685475379296870000,5.476869873046875,9.79361629486084,-0.031862035393714905,0.007699752692133188
1685475379316870000,5.496869873046875,9.785897254943848,-0.041151538491249084,-0.0028060043696314096
1685475379336870000,5.516869873046875,9.781635284423828,-0.0399257093667984,-0.008350975811481476
1685475379356870000,5.536869873046875,9.787238121032715,-0.021595699712634087,0.002901772502809763
1685475379376870000,5.556869873046875,9.797054290771484,-0.02606806717813015,0.0010821791365742683
1685475379396870000,5.576869873046875,9.80125904083252,-0.028069620952010155,-0.0031507695093750954
1685475379416870000,5.596869873046875,9.795425415039062,-0.02897941693663597,0.001158793573267758
1685475379436870000,5.616869873046875,9.780476570129395,-0.04397669434547424,-0.013541605323553085
1685475379456870000,5.636869873046875,9.792917251586914,-0.027945121750235558,-0.0038115691859275103
1685475379476870000,5.656869873046875,9.801603317260742,-0.027140671387314796,0.0010438719764351845
1685475379496870000,5.676869873046875,9.801421165466309,-0.026671407744288445,-0.014547170139849186
1685475379516870000,5.696869873046875,9.798768997192383,-0.028213271871209145,0.0031411927193403244
1685475379536870000,5.716869873046875,9.788474082946777,-0.03085647150874138,0.004817133769392967
1685475379556870000,5.736869873046875,9.777000427246094,-0.05114014819264412,-0.0019728222396224737
1685475379576870000,5.756869873046875,9.793281555175781,-0.039207447320222855,0.0012162544298917055
1685475379596870000,5.776869873046875,9.788780212402344,-0.03178542107343674,-0.008724471554160118
1685475379616870000,5.796869873046875,9.797082901000977,-0.03646847978234291,-0.004443638492375612
1685475379636870000,5.816869873046875,9.793769836425781,-0.033001676201820374,0.009854533709585667
1685475379656870000,5.836869873046875,9.783809661865234,-0.03161304071545601,-0.006550535559654236
1685475379676871400,5.856871337890625,9.783416748046875,-0.0401747040450573,0.005209783092141151
1685475379696870000,5.876869873046875,9.77615737915039,-0.02047521248459816,-0.0008906430448405445
1685475379716870000,5.896869873046875,9.801861763000488,-0.038948871195316315,-0.008437166921794415
1685475379736870000,5.916869873046875,9.783761978149414,-0.0345914252102375,-0.01324472390115261
1685475379756870000,5.936869873046875,9.793855667114258,-0.030013712123036385,0.003361459355801344
1685475379776870000,5.956869873046875,9.805740356445312,-0.04101746529340744,0.005209783092141151
1685475379796870000,5.976869873046875,9.797198295593262,-0.0345914252102375,0.006033387966454029
1685475379816870000,5.996869873046875,9.797102928161621,-0.035041533410549164,0.0034093433059751987
1685475379836870000,6.016869873046875,9.792131423950195,-0.03826892003417015,-0.0075465235859155655
1685475379856870000,6.036869873046875,9.803145408630371,-0.02782062254846096,-0.000957680691499263
1685475379876870000,6.056869873046875,9.796805381774902,-0.0394468680024147,-0.009911995381116867
1685475379896870000,6.076869873046875,9.76930046081543,-0.027399243786931038,0.00022026654914952815
1685475379916870000,6.096869873046875,9.789804458618164,-0.028701690956950188,-0.004692635498940945
1685475379936871400,6.116871337890625,9.79904556274414,-0.03559699282050133,0.0018962076865136623
1685475379956870000,6.136869873046875,9.782880783081055,-0.030990546569228172,0.008054094389081001
1685475379976871400,6.156871337890625,9.78646183013916,-0.03688985854387283,0.0054683564230799675
1685475379996871400,6.176871337890625,9.789737701416016,-0.02293645218014717,0.002250549616292119
1685475380016870000,6.196869873046875,9.785676956176758,-0.0428849421441555,-0.0023463177494704723
1685475380036870000,6.216869873046875,9.793903350830078,-0.04808514937758446,-0.00784340500831604
1685475380056870000,6.236869873046875,9.785447120666504,-0.032455798238515854,-0.013129801489412785
1685475380076870000,6.256869873046875,9.797216415405273,-0.037521932274103165,-0.011003750376403332
1685475380096870000,6.276869873046875,9.785428047180176,-0.03881479799747467,0.0035051112063229084
1685475380116870000,6.296869873046875,9.790225982666016,-0.0249954666942358,0.0026623522862792015
1685475380136870000,6.316869873046875,9.77588939666748,-0.03073197416961193,-0.0018100164597854018
1685475380156870000,6.336869873046875,9.789297103881836,-0.032264262437820435,-0.004989516455680132
1685475380176870000,6.356869873046875,9.80020523071289,-0.02531149983406067,-0.0055449712090194225
1685475380196870000,6.376869873046875,9.79410457611084,-0.026575639843940735,-0.016788143664598465
1685475380216870000,6.396869873046875,9.795703887939453,-0.03418920189142227,-0.00868616346269846
1685475380236870000,6.416869873046875,9.797293663024902,-0.037071820348501205,0.009538499638438225
1685475380256870000,6.436869873046875,9.798002243041992,-0.03857537731528282,-0.009768342599272728
1685475380276870000,6.456869873046875,9.795167922973633,-0.035434186458587646,0.005257667042315006
1685475380296870000,6.476869873046875,9.797102928161621,-0.031316157430410385,-0.017650054767727852
1685475380316870000,6.496869873046875,9.783513069152832,-0.029486987739801407,-0.002269703196361661
1685475380336870000,6.516869873046875,9.773456573486328,-0.018751388415694237,-0.014604630880057812
1685475380356870000,6.536869873046875,9.779796600341797,-0.039466023445129395,-0.0025187002029269934
1685475380376870000,6.556869873046875,9.805797576904297,-0.03656424582004547,0.01639549247920513
1685475380396870000,6.576869873046875,9.7868070602417,-0.033710360527038574,-0.006387730129063129
1685475380416870000,6.596869873046875,9.79419994354248,-0.039868246763944626,0.0050661307759583
1685475380436870000,6.616869873046875,9.798317909240723,-0.04635174572467804,0.0026910826563835144
1685475380456870000,6.636869873046875,9.78428840637207,-0.030597899109125137,-0.005995080806314945
1685475380476870000,6.656869873046875,9.799898147583008,-0.03469676896929741,-0.0009097966831177473
1685475380496870000,6.676869873046875,9.781376838684082,-0.02945825830101967,-0.0017334020230919123
1685475380516870000,6.696869873046875,9.8115816116333,-0.0350702665746212,0.002279279986396432
1685475380536870000,6.716869873046875,9.784709930419922,-0.03704308718442917,-0.006473921239376068
1685475380556871400,6.736871337890625,9.789958000183105,-0.029305029660463333,0.006627150345593691
1685475380576870000,6.756869873046875,9.791500091552734,-0.03634398430585861,-0.0031699230894446373
1685475380596871400,6.776871337890625,9.809168815612793,-0.02720770798623562,-0.00031603462412022054
1685475380616871400,6.796871337890625,9.791029930114746,-0.02782062254846096,-0.0017525556031614542
1685475380636871400,6.816871337890625,9.798136711120605,-0.03386358916759491,0.010266336612403393
1685475380656870000,6.836869873046875,9.792725563049316,-0.030492553487420082,-0.0017046716529875994
1685475380676870000,6.856869873046875,9.803126335144043,-0.015543157234787941,-0.0063781533390283585
1685475380696870000,6.876869873046875,9.778264999389648,-0.032953791320323944,-0.015524003654718399
1685475380716870000,6.896869873046875,9.805108070373535,-0.03714843466877937,0.01424071192741394
1685475380736870000,6.916869873046875,9.789910316467285,-0.029554026201367378,-0.002308010356500745
1685475380756870000,6.936869873046875,9.798653602600098,-0.03809653967618942,-0.011750741861760616
1685475380776870000,6.956869873046875,9.78809928894043,-0.028117503970861435,-0.009481038898229599
1685475380796870000,6.976869873046875,9.786308288574219,-0.022285228595137596,-0.007479486055672169
1685475380816870000,6.996869873046875,9.810471534729004,-0.027495011687278748,-0.011702857911586761
1685475380836870000,7.016869873046875,9.793855667114258,-0.0486980639398098,0.0059184664860367775
1685475380856870000,7.036869873046875,9.799821853637695,-0.04665820300579071,0.0007565676933154464
1685475380876870000,7.056869873046875,9.798500061035156,-0.036008793860673904,0.009902418591082096
1685475380896870000,7.076869873046875,9.802665710449219,-0.03524265065789223,-0.013359645381569862
1685475380916870000,7.096869873046875,9.79116439819336,-0.04013639688491821,0.0070964135229587555
1685475380936870000,7.116869873046875,9.793510437011719,-0.02713109366595745,0.00849462766200304
1685475380956870000,7.136869873046875,9.787334442138672,-0.03942771628499031,0.012574347667396069
1685475380976870000,7.156869873046875,9.79556941986084,-0.048257529735565186,0.009816226549446583
1685475380996870000,7.176869873046875,9.805166244506836,-0.04113238677382469,-0.006981492042541504
1685475381016870000,7.196869873046875,9.78793716430664,-0.031124621629714966,0.010773907415568829
1685475381036870000,7.216869873046875,9.799696922302246,-0.029726408421993256,0.003696647472679615
1685475381056870000,7.236869873046875,9.790742874145508,-0.043258439749479294,-0.009318233467638493
1685475381076870000,7.256869873046875,9.789603233337402,-0.025579649955034256,0.0055353944189846516
1685475381096870000,7.276869873046875,9.793941497802734,-0.03793372958898544,0.0130914943292737
1685475381116870000,7.296869873046875,9.787276268005371,-0.03142150491476059,0.00016280572162941098
1685475381136870000,7.316869873046875,9.795186996459961,-0.03787627071142197,0.005793968215584755
1685475381156870000,7.336869873046875,9.791327476501465,-0.02722686156630516,-0.005583278369158506
1685475381176870000,7.356869873046875,9.794114112854004,-0.028644230216741562,-0.0034476504661142826
1685475381196870000,7.376869873046875,9.79574203491211,-0.03248452767729759,-0.0006033388199284673
1685475381216870000,7.396869873046875,9.79758071899414,-0.035960908979177475,-0.002576161175966263
1685475381236870000,7.416869873046875,9.788999557495117,-0.03877649083733559,-0.006684611551463604
1685475381256870000,7.436869873046875,9.784173965454102,-0.026087220758199692,-0.002308010356500745
1685475381276870000,7.456869873046875,9.786539077758789,-0.021126436069607735,-0.003380612935870886
1685475381296870000,7.476869873046875,9.809657096862793,-0.02883576601743698,0.005612008739262819
1685475381316870000,7.496869873046875,9.797609329223633,-0.044991835951805115,0.007671022322028875
1685475381336870000,7.516869873046875,9.799429893493652,-0.03505111485719681,0.00562158552929759
1685475381356870000,7.536869873046875,9.784891128540039,-0.024325087666511536,-0.005267243832349777
1685475381376870000,7.556869873046875,9.781807899475098,-0.03199611231684685,0.0071826050989329815
1685475381396870000,7.576869873046875,9.799592018127441,-0.02812708169221878,0.0017142484430223703
1685475381416870000,7.596869873046875,9.7816162109375,-0.02957317978143692,-0.0011779472697526217
1685475381436870000,7.616869873046875,9.792524337768555,-0.024554934352636337,-0.007565677165985107
1685475381456870000,7.636869873046875,9.780956268310547,-0.029199684038758278,0.003696647472679615
1685475381476870000,7.656869873046875,9.787745475769043,-0.03076070360839367,0.00024899697746150196
1685475381496870000,7.676869873046875,9.780295372009277,-0.03282929211854935,0.003840299556031823
1685475381516870000,7.696869873046875,9.789555549621582,-0.033729515969753265,0.00209732074290514
1685475381536870000,7.716869873046875,9.791719436645508,-0.042712558060884476,-0.0031794998794794083
1685475381556870000,7.736869873046875,9.790111541748047,-0.04567179083824158,0.0006320692482404411
1685475381576870000,7.756869873046875,9.798089027404785,-0.047309424728155136,-0.0026144683361053467
1685475381596870000,7.776869873046875,9.798041343688965,-0.038948871195316315,-0.004817133769392967
1685475381616870000,7.796869873046875,9.782267570495605,-0.03789542242884636,-0.006895300932228565
1685475381636870000,7.816869873046875,9.785160064697266,-0.03462973237037659,-0.008197746239602566
1685475381656870000,7.836869873046875,9.791278839111328,-0.0257137268781662,0.0017621323931962252
1685475381676870000,7.856869873046875,9.794028282165527,-0.04528871923685074,0.010544064454734325
1685475381696870000,7.876869873046875,9.80014705657959,-0.030789434909820557,0.00319865345954895
1685475381716870000,7.896869873046875,9.788846969604492,-0.029439104720950127,-0.0021835120860487223
1685475381736870000,7.916869873046875,9.807502746582031,-0.04526956379413605,-0.003658340312540531
1685475381756870000,7.936869873046875,9.792869567871094,-0.03337517008185387,-0.012660538777709007
1685475381776870000,7.956869873046875,9.792189598083496,-0.03924575448036194,-0.007259219419211149
1685475381796870000,7.976869873046875,9.791739463806152,-0.0239324402064085,-0.0070868367329239845
1685475381816870000,7.996869873046875,9.788081169128418,-0.03987782448530197,0.002317587146535516
1685475381836870000,8.016869873046875,9.794181823730469,-0.021691467612981796,0.0034955344162881374
1685475381856870000,8.036869873046875,9.796058654785156,-0.03789542242884636,0.004635174293071032
1685475381876870000,8.056869873046875,9.793922424316406,-0.03556825965642929,0.004108449909836054
1685475381896870000,8.076869873046874,9.790427207946777,-0.021547814831137657,0.0030837319791316986
1685475381916870000,8.096869873046876,9.798567771911621,-0.03516603633761406,-0.008111555129289627
1685475381936870000,8.116869873046875,9.783082008361816,-0.03002328798174858,0.0025474305730313063
1685475381956870000,8.136869873046875,9.800549507141113,-0.027054479345679283,0.0023463177494704723
1685475381976870000,8.156869873046874,9.792476654052734,-0.029745562002062798,-0.003284844569861889
1685475381996870000,8.176869873046876,9.791316986083984,-0.027600357308983803,-0.008916007354855537
1685475382016870000,8.196869873046875,9.780218124389648,-0.025052927434444427,0.01338837668299675
1685475382036870000,8.216869873046875,9.795626640319824,-0.027293900027871132,0.002394201699644327
1685475382056870000,8.236869873046874,9.78921127319336,-0.02883576601743698,0.011070788837969303
1685475382076870000,8.256869873046876,9.798959732055664,-0.0229843370616436,-0.00649307481944561
1685475382096870000,8.276869873046875,9.786347389221191,-0.039944861084222794,0.008350975811481476
1685475382116870000,8.296869873046875,9.796613693237305,-0.04315309226512909,0.01424071192741394
1685475382136870000,8.316869873046874,9.776033401489258,-0.03077985718846321,-0.002240972826257348
1685475382156870000,8.336869873046876,9.805644989013672,-0.02992752008140087,0.0051714759320020676
1685475382176870000,8.356869873046875,9.793395042419434,-0.03727293387055397,-0.0029783868230879307
1685475382196870000,8.376869873046875,9.792180061340332,-0.039772480726242065,0.004462792072445154
1685475382216870000,8.396869873046874,9.78707504272461,-0.03412216156721115,-0.002308010356500745
1685475382236870000,8.416869873046876,9.80228328704834,-0.0388626828789711,0.002403778489679098
1685475382256870000,8.436869873046875,9.78636646270752,-0.03399766609072685,0.0068186866119503975
1685475382276870000,8.456869873046875,9.787649154663086,-0.04013639688491821,0.004529829602688551
1685475382296870000,8.476869873046875,9.77791976928711,-0.030128633603453636,0.01218169741332531
1685475382316870000,8.496869873046874,9.8009614944458,-0.03746446967124939,-0.008925584144890308
1685475382336870000,8.516869873046875,9.807100296020508,-0.03712927922606468,0.0028155811596661806
1685475382356870000,8.536869873046875,9.796642303466797,-0.04324885830283165,0.004606443922966719
1685475382376870000,8.556869873046875,9.79094409942627,-0.0334039032459259,-0.0017429788131266832
1685475382396870000,8.576869873046874,9.802656173706055,-0.03439031168818474,-0.0017717091832309961
1685475382416870000,8.596869873046876,9.788081169128418,-0.02900814823806286,0.004836287349462509
1685475382436870000,8.616869873046875,9.79858684539795,-0.03087562508881092,-0.0037636850029230118
1685475382456870000,8.636869873046875,9.800080299377441,-0.023204602301120758,-0.010611101984977722
1685475382476870000,8.656869873046874,9.78357982635498,-0.03634398430585861,-0.00884896982461214
1685475382496870000,8.676869873046876,9.787447929382324,-0.035462915897369385,-0.004347870126366615
1685475382516870000,8.696869873046875,9.801823616027832,-0.0299754049628973,0.0071730283088982105
1685475382536870000,8.716869873046875,9.800932884216309,-0.04000232368707657,0.0011971008498221636
1685475382556870000,8.736869873046874,9.78858757019043,-0.028404807671904564,0.023511061444878578
1685475382576870000,8.756869873046876,9.795454978942871,-0.031478963792324066,-0.01258392445743084
1685475382596870000,8.776869873046875,9.791719436645508,-0.04024174064397812,0.007316680625081062
1685475382616870000,8.796869873046875,9.790446281433105,-0.04298070818185806,-0.0007278373232111335
1685475382636870000,8.816869873046874,9.803709983825684,-0.02981259860098362,-0.005822698585689068
1685475382656870000,8.836869873046876,9.788252830505371,-0.027945121750235558,0.00823605339974165
1685475382676870000,8.856869873046875,9.79517650604248,-0.03415089473128319,-0.011836932972073555
1685475382696870000,8.876869873046875,9.79356861114502,-0.044800300151109695,0.006751649081707001
1685475382716870000,8.896869873046874,9.798136711120605,-0.0494067445397377,0.010007763281464577
1685475382736870000,8.916869873046876,9.793885231018066,-0.02966894768178463,-0.009988609701395035
1685475382756870000,8.936869873046875,9.797571182250977,-0.03765600547194481,0.015447389334440231
1685475382776870000,8.956869873046875,9.80396842956543,-0.025129541754722595,-0.0015322890831157565
1685475382796870000,8.976869873046875,9.780284881591797,-0.03666001558303833,-0.011204863898456097
1685475382816870000,8.996869873046874,9.783828735351562,-0.034802116453647614,-0.0007086837431415915
1685475382836870000,9.016869873046875,9.794448852539062,-0.03812526538968086,-0.0005937620298936963
1685475382856870000,9.036869873046875,9.782899856567383,-0.02603933773934841,-0.007833828218281269
1685475382876870000,9.056869873046875,9.786730766296387,-0.03828807547688484,-0.0071634515188634396
1685475382896870000,9.076869873046874,9.78815746307373,-0.023252487182617188,0.00023942017287481576
1685475382916870000,9.096869873046876,9.788999557495117,-0.03328897804021835,-0.004510676022619009
1685475382936870000,9.116869873046875,9.772528648376465,-0.028491001576185226,0.004807556979358196
1685475382956870000,9.136869873046875,9.802627563476562,-0.041668687015771866,-0.01023760624229908
1685475382976870000,9.156869873046874,9.792255401611328,-0.030933085829019547,-0.0007374141132459044
1685475382996870000,9.176869873046876,9.785025596618652,-0.049397170543670654,-0.0027293898165225983
1685475383016870000,9.196869873046875,9.780562400817871,-0.02329079434275627,-0.0030550011433660984
1685475383036870000,9.216869873046875,9.786491394042969,-0.03646847978234291,0.00416591065004468
1685475383056870000,9.236869873046874,9.794448852539062,-0.02836650051176548,-0.007872135378420353
1685475383076870000,9.256869873046876,9.784680366516113,-0.029563602060079575,-0.003715801052749157
1685475383096870000,9.276869873046875,9.794650077819824,-0.035980064421892166,-0.0009385270532220602
1685475383116870000,9.296869873046875,9.779959678649902,-0.04603571072220802,0.0007661445415578783
1685475383136870000,9.316869873046874,9.789498329162598,-0.04241567477583885,-0.009758765809237957
1685475383156870000,9.336869873046876,9.781003952026367,-0.04141968861222267,-0.0023271639365702868
1685475383176870000,9.356869873046875,9.780994415283203,-0.028299463912844658,-0.008734048344194889
1685475383196870000,9.376869873046875,9.786893844604492,-0.029735984280705452,0.01289038173854351
1685475383216870000,9.396869873046874,9.78392505645752,-0.028845341876149178,-0.0036391867324709892
1685475383236870000,9.416869873046876,9.79725456237793,-0.03298252075910568,0.008092401549220085
1685475383256870000,9.436869873046875,9.796814918518066,-0.04153461009263992,0.0019057845929637551
1685475383276870000,9.456869873046875,9.799582481384277,-0.04851610213518143,-0.0033231519628316164
1685475383296870000,9.476869873046875,9.777230262756348,-0.040912117809057236,-0.004491522442549467
1685475383316870000,9.496869873046874,9.797954559326172,-0.028969841077923775,0.013972560875117779
1685475383336870000,9.516869873046875,9.774328231811523,-0.035702336579561234,0.00329442135989666
1685475383356870000,9.536869873046875,9.806659698486328,-0.03855622559785843,0.007967903278768063
1685475383376870000,9.556869873046875,9.784202575683594,-0.04167826473712921,-0.006560112349689007
1685475383396870000,9.576869873046874,9.793357849121094,-0.02531149983406067,-0.00419464148581028
1685475383416870000,9.596869873046876,9.777565002441406,-0.010505757294595242,0.00005746084207203239
1685475383436870000,9.616869873046875,9.80370044708252,-0.038211461156606674,0.0012641384964808822
1685475383456870000,9.636869873046875,9.795762062072754,-0.04093126952648163,-0.0035242647863924503
1685475383476870000,9.656869873046874,9.797820091247559,-0.03628652170300484,0.007201758679002523
1685475383496870000,9.676869873046876,9.789575576782227,-0.035606566816568375,-0.01399171445518732
1685475383516870000,9.696869873046875,9.801948547363281,-0.03371993452310562,-0.013512874953448772
1685475383536870000,9.716869873046875,9.783522605895996,-0.02912306971848011,-0.0019823990296572447
1685475383556870000,9.736869873046874,9.788885116577148,-0.026623522862792015,0.0012258312199264765
1685475383576870000,9.756869873046876,9.802695274353027,-0.046131476759910583,-0.016768990084528923
1685475383596870000,9.776869873046875,9.78690242767334,-0.03256114199757576,-0.011616666801273823
1685475383616870000,9.796869873046875,9.782134056091309,-0.03165134787559509,-0.004098873119801283
1685475383636870000,9.816869873046874,9.780265808105469,-0.03703351318836212,0.007058106362819672
1685475383656870000,9.836869873046876,9.796585083007812,-0.038948871195316315,0.00619619432836771
1685475383676870000,9.856869873046875,9.790570259094238,-0.02488054521381855,-0.004606443922966719
1685475383696870000,9.876869873046875,9.788358688354492,-0.04479072615504265,0.011348516680300236
1685475383716870000,9.896869873046874,9.798089027404785,-0.04533660411834717,0
1685475383736870000,9.916869873046876,9.795062065124512,-0.03414131700992584,-0.01099417358636856
1685475383756870000,9.936869873046875,9.784431457519531,-0.038326382637023926,0.0027006594464182854
1685475383776870000,9.956869873046875,9.800607681274414,-0.042923249304294586,0.010065224021673203
1685475383796870000,9.976869873046875,9.787352561950684,-0.031143775209784508,-0.003734954632818699
1685475383816870000,9.996869873046874,9.78406810760498,-0.05707776919007301,0.001436521066352725
1685475383836870000,10.016869873046875,9.801765441894531,-0.036075834184885025,0.001915361382998526
1685475383856870000,10.036869873046875,9.809867858886719,-0.034112587571144104,-0.010658985935151577
1685475383876870000,10.056869873046875,9.77828311920166,-0.030348900705575943,0.022553378716111183
1685475383896870000,10.076869873046874,9.792102813720703,-0.03578852862119675,0.013972560875117779
1685475383916870000,10.096869873046876,9.788511276245117,-0.0401747040450573,0.008504204452037811
1685475383936871400,10.116871337890625,9.79922866821289,-0.044350191950798035,-0.007383718155324459
1685475383956870000,10.136869873046875,9.793874740600586,-0.03457227349281311,0.0035434183664619923
1685475383976871400,10.156871337890625,9.793702125549316,-0.025292346253991127,-0.009615113958716393
1685475383996870000,10.176869873046876,9.790934562683105,-0.02450704760849476,0.01877054199576378
1685475384016870000,10.196869873046875,9.805960655212402,-0.03781880810856819,0.0047405194491147995
1685475384036870000,10.216869873046875,9.78877067565918,-0.0434882827103138,0.005602431949228048
1685475384056870000,10.236869873046874,9.796910285949707,-0.036813244223594666,0.006904877722263336
1685475384076870000,10.256869873046876,9.787572860717773,-0.022160731256008148,0.008025364018976688
1685475384096870000,10.276869873046875,9.789804458618164,-0.04927267134189606,-0.002308010356500745
1685475384116870000,10.296869873046875,9.788788795471191,-0.029678523540496826,0.00027772740577347577
1685475384136870000,10.316869873046874,9.790398597717285,-0.03688985854387283,0.0047500962391495705
1685475384156870000,10.336869873046876,9.791709899902344,-0.033470939844846725,0.002451662439852953
1685475384176870000,10.356869873046875,9.794803619384766,-0.03656424582004547,-0.006789956241846085
1685475384196870000,10.376869873046875,9.794448852539062,-0.031143775209784508,-0.009222464635968208
1685475384216870000,10.396869873046874,9.811697006225586,-0.028663383796811104,0.0076135615818202496
1685475384236870000,10.416869873046876,9.799782752990723,-0.038326382637023926,-0.0006224924582056701
1685475384256870000,10.436869873046875,9.796182632446289,-0.027945121750235558,-0.002116474322974682
1685475384276870000,10.456869873046875,9.789316177368164,-0.03868072107434273,-0.00759440753608942
1685475384296870000,10.476869873046875,9.79023551940918,-0.03005201928317547,0.003246537409722805
1685475384316870000,10.496869873046874,9.784575462341309,-0.034936193376779556,-0.013407530263066292
1685475384336870000,10.516869873046875,9.795809745788574,-0.03888183459639549,0.007967903278768063
1685475384356870000,10.536869873046875,9.789862632751465,-0.034610580652952194,-0.00020111293997615576
1685475384376870000,10.556869873046875,9.78402042388916,-0.028759151697158813,0.0024803930427879095
1685475384396870000,10.576869873046874,9.788415908813477,-0.030607474967837334,-0.004596867132931948
1685475384416870000,10.596869873046876,9.798145294189453,-0.02881661243736744,-0.0027102362364530563
1685475384436870000,10.616869873046875,9.77076530456543,-0.038805220276117325,0.012373235076665878
1685475384456870000,10.636869873046875,9.79855728149414,-0.025244463235139847,0.0070868367329239845
1685475384476870000,10.656869873046874,9.789555549621582,-0.03764642775058746,0.0019919758196920156
1685475384496870000,10.676869873046876,9.789153099060059,-0.03552037850022316,0.0056407395750284195
1685475384516870000,10.696869873046875,9.792313575744629,-0.03552037850022316,0.01088882889598608
1685475384536870000,10.716869873046875,9.786041259765625,-0.025560496374964714,0.005659893155097961
1685475384556870000,10.736869873046874,9.79121208190918,-0.04248271510004997,0.0063685765489935875
1685475384576870000,10.756869873046876,9.789278030395508,-0.02184469625353813,-0.0010247182799503207
1685475384596870000,10.776869873046875,9.796460151672363,-0.02621171995997429,-0.001599326729774475
1685475384616870000,10.796869873046875,9.807473182678223,-0.017975665628910065,0.008216899819672108
1685475384636870000,10.816869873046874,9.783751487731934,-0.032762255519628525,-0.002844311762601137
1685475384656870000,10.836869873046876,9.788483619689941,-0.02168188989162445,0.01088882889598608
1685475384676870000,10.856869873046875,9.782315254211426,-0.012727576307952404,-0.0005458780215121806
1685475384696870000,10.876869873046875,9.786355972290039,-0.03715800866484642,0.0024803930427879095
1685475384716870000,10.896869873046874,9.80597972869873,-0.03905421867966652,-0.0019057845929637551
1685475384736870000,10.916869873046876,9.784843444824219,-0.03359543904662132,0.02220861427485943
1685475384756870000,10.936869873046875,9.780831336975098,-0.037119701504707336,-0.014154519885778427
1685475384776870000,10.956869873046875,9.795167922973633,-0.03308786824345589,-0.00013407529331743717
1685475384796870000,10.976869873046875,9.795004844665527,-0.03947559744119644,0.0004788403457496315
1685475384816870000,10.996869873046874,9.783513069152832,-0.035654451698064804,0.0023558945395052433
1685475384836870000,11.016869873046875,9.787515640258789,-0.036123715341091156,-0.010764330625534058
1685475384856870000,11.036869873046875,9.794670104980469,-0.03071282058954239,0.005832275375723839
1685475384876870000,11.056869873046875,9.78281307220459,-0.0439479686319828,0.0035242647863924503
1685475384896870000,11.076869873046874,9.806832313537598,-0.036363136023283005,0.004146757069975138
1685475384916871400,11.096871337890626,9.793960571289062,-0.02806004323065281,0.004874594509601593
1685475384936870000,11.116869873046875,9.786615371704102,-0.031239543110132217,-0.0006895300466567278
1685475384956871400,11.136871337890625,9.781932830810547,-0.020657172426581383,0.011473014950752258
1685475384976870000,11.156869873046874,9.789976119995117,-0.03595133125782013,-0.00012449848873075098
1685475384996871400,11.176871337890624,9.794305801391602,-0.041343074291944504,0.009548076428472996
1685475385016871400,11.196871337890625,9.788444519042969,-0.028088774532079697,-0.00793917290866375
1685475385036870000,11.216869873046875,9.794995307922363,-0.047884032130241394,-0.011080365628004074
1685475385056870000,11.236869873046874,9.797188758850098,-0.02319502644240856,0.009088389575481415
1685475385076870000,11.256869873046876,9.791221618652344,-0.05416642129421234,-0.004788403399288654
1685475385096870000,11.276869873046875,9.797073364257812,-0.034917037934064865,0.014614207670092583
1685475385116870000,11.296869873046875,9.798136711120605,-0.045604754239320755,0.0012354080099612474
1685475385136870000,11.316869873046874,9.803614616394043,-0.0434882827103138,0.010563218034803867
1685475385156870000,11.336869873046876,9.809571266174316,-0.040960002690553665,0.009011775255203247
1685475385176870000,11.356869873046875,9.793482780456543,-0.030913932248950005,0.00838928297162056
1685475385196870000,11.376869873046875,9.776291847229004,-0.04116111248731613,-0.007852981798350811
1685475385216870000,11.396869873046874,9.787266731262207,-0.03943729028105736,-0.01573469303548336
1685475385236870000,11.416869873046876,9.79419994354248,-0.029544448480010033,0.003725377842783928
1685475385256870000,11.436869873046875,9.787246704101562,-0.044350191950798035,0.003849876346066594
1685475385276870000,11.456869873046875,9.788856506347656,-0.03722504898905754,-0.009414001367986202
1685475385296870000,11.476869873046875,9.79116439819336,-0.04372769966721535,0.0024803930427879095
1685475385316870000,11.496869873046874,9.798691749572754,-0.041266459971666336,0.0006991068948991597
1685475385336870000,11.516869873046875,9.777364730834961,-0.027246015146374702,-0.0017238252330571413
1685475385356870000,11.536869873046875,9.798298835754395,-0.0257137268781662,-0.0013407529331743717
1685475385376870000,11.556869873046875,9.801162719726562,-0.03433285281062126,0.0063685765489935875
1685475385396870000,11.576869873046874,9.792533874511719,-0.03305913507938385,0.012095506303012371
1685475385416870000,11.596869873046876,9.805672645568848,-0.02258211188018322,0.001130063203163445
1685475385436870000,11.616869873046875,9.793606758117676,-0.040912117809057236,-0.006004657596349716
1685475385456870000,11.636869873046875,9.794794082641602,-0.0393415205180645,0.00045968673657625914
1685475385476870000,11.656869873046874,9.78674030303955,-0.03473507612943649,0.01928768865764141
1685475385496870000,11.676869873046876,9.777143478393555,-0.03834553435444832,-0.00009576806769473478
1685475385516870000,11.696869873046875,9.783226013183594,-0.04564306139945984,-0.0038019923958927393
1685475385536929300,11.71692919921875,9.777009963989258,-0.029094340279698372,-0.0010726023465394974
1685475385556870000,11.736869873046874,9.79033088684082,-0.021576546132564545,0.0005171475349925458
1685475385576870000,11.756869873046876,9.7801513671875,-0.034419044852256775,0.003361459355801344
1685475385596870000,11.776869873046875,9.776483535766602,-0.019900605082511902,-0.002844311762601137
1685475385616870000,11.796869873046875,9.78991985321045,-0.04487691447138786,-0.0068282634019851685
1685475385636870000,11.816869873046874,9.78690242767334,-0.03429454565048218,-0.007910442538559437
1685475385656870000,11.836869873046876,9.786702156066895,-0.04220498725771904,-0.0071634515188634396
1685475385676870000,11.856869873046875,9.79001522064209,-0.034849997609853745,0.003725377842783928
1685475385696870000,11.876869873046875,9.784345626831055,-0.03819230571389198,-0.018598157912492752
1685475385716870000,11.896869873046874,9.785801887512207,-0.017046716064214706,-0.004223371855914593
1685475385736870000,11.916869873046876,9.791269302368164,-0.03217807039618492,-0.011760318651795387
1685475385756870000,11.936869873046875,9.789363861083984,-0.03168007731437683,-0.004319139756262302
1685475385776870000,11.956869873046875,9.794995307922363,-0.028098350390791893,0.0037636850029230118
1685475385796870000,11.976869873046875,9.793060302734375,-0.026431985199451447,0.006244078278541565
1685475385816870000,11.996869873046874,9.792131423950195,-0.034658461809158325,-0.00009576806769473478
1685475385836870000,12.016869873046875,9.771454811096191,-0.036966472864151,-0.008734048344194889
1685475385856870000,12.036869873046875,9.789487838745117,-0.031526848673820496,-0.00024899697746150196
1685475385876870000,12.056869873046875,9.7932710647583,-0.03736870363354683,0.011089942418038845
1685475385896870000,12.076869873046874,9.79948616027832,-0.04193683713674545,0.001599326729774475
1685475385916870000,12.096869873046876,9.786883354187012,-0.033854011446237564,0.00006703764665871859
1685475385936870000,12.116869873046875,9.787208557128906,-0.05223190411925316,0.007067683152854443
1685475385956870000,12.136869873046875,9.78695011138916,-0.03462973237037659,0.006435614079236984
1685475385976870000,12.156869873046874,9.774989128112793,-0.04948335886001587,-0.005602431949228048
1685475385996870000,12.176869873046876,9.79202651977539,-0.03714843466877937,0.00884896982461214
1685475386016870000,12.196869873046875,9.776876449584961,-0.028500577434897423,-0.006330269388854504
1685475386036870000,12.216869873046875,9.805845260620117,-0.041103653609752655,-0.0015610195696353912
1685475386056870000,12.236869873046874,9.781099319458008,-0.03526180237531662,0.013283031061291695
1685475386076870000,12.256869873046876,9.790465354919434,-0.03427539020776749,-0.0012258312199264765
1685475386096870000,12.276869873046875,9.800233840942383,-0.028203696012496948,0.003907337319105864
1685475386116870000,12.296869873046875,9.786873817443848,-0.038422148674726486,-0.0063589997589588165
1685475386136870000,12.316869873046874,9.773351669311523,-0.023444022983312607,0.003993528429418802
1685475386156870000,12.336869873046876,9.782937049865723,-0.03807738423347473,0.00674207229167223
1685475386176870000,12.356869873046875,9.780438423156738,-0.03242706507444382,-0.01357991248369217
1685475386196870000,12.376869873046875,9.798328399658203,-0.03741658478975296,0.01098459679633379
1685475386216870000,12.396869873046874,9.791040420532227,-0.03111504577100277,0.0012162544298917055
1685475386236870000,12.416869873046876,9.789173126220703,-0.04445553570985794,-0.0055641247890889645
1685475386256870000,12.436869873046875,9.789029121398926,-0.01578257791697979,0.0027102362364530563
1685475386276870000,12.456869873046875,9.783943176269531,-0.03520434349775314,0.00894473772495985
1685475386296870000,12.476869873046875,9.793319702148438,-0.02893153391778469,-0.007900865748524666
1685475386316870000,12.496869873046874,9.790570259094238,-0.0396958664059639,-0.002413355279713869
1685475386336870000,12.516869873046875,9.79736042022705,-0.03326982632279396,-0.00009576806769473478
1685475386356870000,12.536869873046875,9.784001350402832,-0.040414124727249146,-0.0005554548115469515
1685475386376870000,12.556869873046875,9.789344787597656,-0.029659369960427284,0.006426037289202213
1685475386396870000,12.576869873046874,9.793204307556152,-0.04049073904752731,-0.004683058708906174
1685475386416870000,12.596869873046876,9.79552173614502,-0.029707254841923714,0.006263231858611107
1685475386436870000,12.616869873046875,9.775065422058105,-0.04244440793991089,0.008015787228941917
1685475386456870000,12.636869873046875,9.77953815460205,-0.026977865025401115,-0.01358948927372694
1685475386476870000,12.656869873046874,9.796748161315918,-0.03337517008185387,-0.0029688100330531597
1685475386496870000,12.676869873046876,9.796805381774902,-0.03184288367629051,-0.009634267538785934
1685475386516870000,12.696869873046875,9.780811309814453,-0.03293463960289955,0.0007374141132459044
1685475386536870000,12.716869873046875,9.789238929748535,-0.033518824726343155,0.0034572272561490536
1685475386556870000,12.736869873046874,9.788607597351074,-0.03619075566530228,-0.007134721148759127
1685475386576870000,12.756869873046876,9.77241325378418,-0.016031574457883835,-0.002442085649818182
1685475386596870000,12.776869873046875,9.786031723022461,-0.04026089608669281,0.002834734972566366
1685475386616870000,12.796869873046875,9.77840805053711,-0.03713885322213173,0.013522451743483543
1685475386636870000,12.816869873046874,9.797677040100098,-0.0409887321293354,0.004223371855914593
1685475386656870000,12.836869873046876,9.779135704040527,-0.03463931009173393,-0.0023271639365702868
1685475386676870000,12.856869873046875,9.797629356384277,-0.028797458857297897,0.004932055249810219
1685475386696870000,12.876869873046875,9.776033401489258,-0.04002147540450096,-0.0033997665159404278
1685475386716870000,12.896869873046874,9.782631874084473,-0.028021736070513725,0.0027293898165225983
1685475386736870000,12.916869873046876,9.782238960266113,-0.03916914016008377,0.002087743952870369
1685475386756870000,12.936869873046875,9.784546852111816,-0.012009315192699432,-0.008657433092594147
1685475386776870000,12.956869873046875,9.774998664855957,-0.028644230216741562,-0.012631808407604694
1685475386796870000,12.976869873046875,9.786088943481445,-0.0299754049628973,-0.00824563018977642
1685475386816870000,12.996869873046874,9.778254508972168,-0.046342168003320694,-0.008101978339254856
1685475386836870000,13.016869873046875,9.802053451538086,-0.03477338328957558,-0.00904050562530756
1685475386856870000,13.036869873046875,9.787409782409668,-0.04339251294732094,-0.007651868741959333
1685475386876870000,13.056869873046875,9.78357982635498,-0.02912306971848011,0.0006320692482404411
1685475386896870000,13.076869873046874,9.791231155395508,-0.04682100564241409,0.0051714759320020676
1685475386916870000,13.096869873046876,9.780074119567871,-0.035865142941474915,-0.004951209295541048
1685475386936870000,13.116869873046875,9.789785385131836,-0.0407588891685009,-0.006732495501637459
1685475386956870000,13.136869873046875,9.78602123260498,-0.030674513429403305,0.012641385197639465
1685475386976870000,13.156869873046874,9.792964935302734,-0.030233977362513542,0.0015610195696353912
1685475386996870000,13.176869873046876,9.788081169128418,-0.026384102180600166,-0.009021352045238018
1685475387016870000,13.196869873046875,9.801048278808594,-0.025694573298096657,-0.011166556738317013
1685475387036870000,13.216869873046875,9.795502662658691,-0.03855622559785843,0.0021547814831137657
1685475387056870000,13.236869873046874,9.781510353088379,-0.036171600222587585,-0.006464344449341297
1685475387076870000,13.256869873046876,9.796087265014648,-0.015543157234787941,-0.013254300691187382
1685475387096870000,13.276869873046875,9.793367385864258,-0.05090072751045227,-0.010716446675360203
1685475387116870000,13.296869873046875,9.788186073303223,-0.036171600222587585,0.017525557428598404
1685475387136870000,13.316869873046874,9.796460151672363,-0.034869153052568436,0.00033518823329359293
1685475387156870000,13.336869873046876,9.781291007995605,-0.03275267779827118,-0.011070788837969303
1685475387176870000,13.356869873046875,9.797399520874023,-0.03699520602822304,-0.001628057099878788
1685475387196870000,13.376869873046875,9.79192066192627,-0.025158271193504333,-0.000009576806405675597
1685475387216870000,13.396869873046874,9.798932075500488,-0.04299028217792511,-0.0034859576262533665
1685475387236870000,13.416869873046876,9.788272857666016,-0.04157291725277901,-0.005085284356027842
1685475387256870000,13.436869873046875,9.786797523498535,-0.03359543904662132,0.0007661445415578783
1685475387276870000,13.456869873046875,9.790532112121582,-0.039063792675733566,0.00022984336828812957
1685475387296870000,13.476869873046875,9.79317569732666,-0.024708162993192673,-0.009203311055898666
1685475387316870000,13.496869873046874,9.796402931213379,-0.03130657970905304,0.00859039556235075
1685475387336870000,13.516869873046875,9.78908634185791,-0.02672886848449707,0.006732495501637459
1685475387356870000,13.536869873046875,9.789450645446777,-0.023951593786478043,-0.004108449909836054
1685475387376870000,13.556869873046875,9.809541702270508,-0.03145023435354233,0.0050948611460626125
1685475387396870000,13.576869873046874,9.802857398986816,-0.032312143594026566,-0.0034189200960099697
1685475387416870000,13.596869873046876,9.780065536499023,-0.02957317978143692,-0.008714893832802773
1685475387436870000,13.616869873046875,9.789613723754883,-0.034658461809158325,-0.011453861370682716
1685475387456870000,13.636869873046875,9.787601470947266,-0.04466622695326805,-0.0025091234128922224
1685475387476870000,13.656869873046874,9.780447959899902,-0.024037783965468407,-0.005027823615819216
1685475387496870000,13.676869873046876,9.792745590209961,-0.03386358916759491,-0.009749189019203186
1685475387516870000,13.696869873046875,9.799696922302246,-0.032762255519628525,-0.007881712168455124
1685475387536870000,13.716869873046875,9.816840171813965,0.2806004285812378,0.8426632285118103
1685475387556870000,13.736869873046874,9.773571968078613,0.4435785412788391,0.9061670303344727
1685475387576870000,13.756869873046876,9.779671669006348,-0.2859730124473572,-0.7441178560256958
1685475387596870000,13.776869873046875,9.807425498962402,-0.3487202823162079,-0.5686516165733337
1685475387616870000,13.796869873046875,9.778523445129395,-0.27050647139549255,-0.5934459567070007
1685475387636870000,13.816869873046874,9.77464485168457,-0.07079175859689713,-0.19065508246421814
1685475387656870000,13.836869873046876,9.816006660461426,0.02627875655889511,0.3663703203201294
1685475387676870000,13.856869873046875,9.800472259521484,0.03431369736790657,0.18671901524066925
1685475387696870000,13.876869873046875,9.811868667602539,-0.004357446916401386,0.09427408874034882
1685475387716870000,13.896869873046874,9.77131175994873,-0.05326620116829872,-0.10737515985965729
1685475387736870000,13.916869873046876,9.78925895690918,0.038517918437719345,0.08343314379453659
1685475387756870000,13.936869873046875,9.801362991333008,-0.006224924698472023,0.04326801374554634
1685475387776870000,13.956869873046875,9.788761138916016,-0.04315309226512909,0.08669883012771606
1685475387796870000,13.976869873046875,9.820508003234863,-0.06011361628770828,-0.0819774642586708
1685475387816870000,13.996869873046874,9.76486587524414,-0.05243301764130592,-0.01869392767548561
1685475387836870000,14.016869873046875,9.766179084777832,-0.011463438160717487,0.18854817748069763
1685475387856870000,14.036869873046875,9.780983924865723,-0.10053731501102448,-0.17390522360801697
1685475387876870000,14.056869873046875,9.786596298217773,-0.006627150345593691,0.10656112432479858
1685475387896870000,14.076869873046874,9.79753303527832,0.01278503704816103,0.16389746963977814
1685475387916870000,14.096869873046876,9.800004005432129,0.08908345550298691,0.1439681351184845
1685475387936870000,14.116869873046875,9.749371528625488,-0.022993912920355797,-0.23522552847862244
1685475387956870000,14.136869873046875,9.795493125915527,-0.11745953559875488,-0.18492814898490906
1685475387976870000,14.156869873046874,9.836893081665039,0.022151153534650803,-0.08883445709943771
1685475387996870000,14.176869873046876,9.775812149047852,0.04167826473712921,0.068263478577137
1685475388016870000,14.196869873046875,9.784087181091309,-0.10858183354139328,-0.09276095032691956
1685475388036870000,14.216869873046875,9.772843360900879,0.002279279986396432,0.018904617056250572
1685475388056870000,14.236869873046874,9.782851219177246,0.05981673300266266,0.14906300604343414
1685475388076870000,14.256869873046876,9.813478469848633,0.017209522426128387,0.09473377466201782
1685475388096870000,14.276869873046875,9.772795677185059,-0.16246095299720764,-0.12611696124076843
1685475388116870000,14.296869873046875,9.775343894958496,-0.02057098038494587,0.03593217954039574
1685475388136870000,14.316869873046874,9.8442964553833,-0.0030933087691664696,0.13253343105316162
1685475388156870000,14.336869873046876,9.757176399230957,-0.1554698795080185,-0.2293836772441864
1685475388176870000,14.356869873046875,9.78921127319336,-0.04118026793003082,0.14331690967082977
1685475388196870000,14.376869873046875,9.805548667907715,0.03777092695236206,0.18155710399150848
1685475388216870000,14.396869873046874,9.779988288879395,0.12272677570581436,0.09690770506858826
1685475388236870000,14.416869873046876,9.796134948730469,-0.13264834880828857,-0.13256216049194336
1685475388256870000,14.436869873046875,9.825383186340332,-0.13525323569774628,0.17555244266986847
1685475388276870000,14.456869873046875,9.766054153442383,-0.05815994739532471,-0.075474813580513
1685475388296870000,14.476869873046875,9.787160873413086,0.07603026926517487,0.22257457673549652
1685475388316870000,14.496869873046874,9.777766227722168,0.03264733403921127,0.07719863951206207
1685475388336870000,14.516869873046875,9.789507865905762,-0.21907903254032135,-0.23606827855110168
1685475388356870000,14.536869873046875,9.779777526855469,-0.04469495639204979,-0.06107129529118538
1685475388376870000,14.556869873046875,9.791518211364746,0.02580949477851391,0.07351156324148178
1685475388396870000,14.576869873046874,9.776578903198242,0.03533841669559479,0.10069054365158081
1685475388416870000,14.596869873046876,9.793146133422852,-0.06075526028871536,0.03793372958898544
1685475388436870000,14.616869873046875,9.77551555633545,-0.015476119704544544,0.057738568633794785
1685475388456870000,14.636869873046875,9.7965087890625,-0.11485464125871658,-0.0906444787979126
1685475388476870000,14.656869873046874,9.79556941986084,-0.10524910688400269,-0.0018579005263745785
1685475388496870000,14.676869873046876,9.796919822692871,0.00584185216575861,0.04602613300085068
1685475388516870000,14.696869873046875,9.777336120605469,0.11864705383777618,0.31064289808273315
1685475388536870000,14.716869873046875,9.783895492553711,-0.011042057536542416,-0.008810662664473057
1685475388556870000,14.736869873046874,9.78674030303955,-0.07238151133060455,-0.015753846615552902
1685475388576870000,14.756869873046876,9.79056167602539,0.016414646059274673,0.10609186440706253
1685475388596870000,14.776869873046875,9.80130672454834,-0.0036391867324709892,0.01398213766515255
1685475388616870000,14.796869873046875,9.788741111755371,0.07645164430141449,0.19709068536758423
1685475388636870000,14.816869873046874,9.810308456420898,-0.05246174708008766,0.1471763551235199
1685475388656870000,14.836869873046876,9.805548667907715,-0.14187082648277283,-0.255183607339859
1685475388676870000,14.856869873046875,9.7949857711792,-0.0592421256005764,-0.03998316824436188
1685475388696870000,14.876869873046875,9.811246871948242,0.0051044379360973835,0.011042057536542416
1685475388716870000,14.896869873046874,9.786615371704102,-0.18146133422851562,-0.1880405992269516
1685475388736870000,14.916869873046876,9.79312801361084,0.039561789482831955,0.1549718976020813
1685475388756870000,14.936869873046875,9.804542541503906,-0.06271850317716599,-0.0871010571718216
1685475388776870000,14.956869873046875,9.765144348144531,-0.004692635498940945,0.07247727364301682
1685475388796870000,14.976869873046875,9.81246280670166,-0.09401550889015198,-0.061368178576231
1685475388816870000,14.996869873046874,9.792619705200195,-0.09411127865314484,-0.18298405408859253
1685475388836870000,15.016869873046875,9.796526908874512,0.0016855180729180574,0.328359991312027
1685475388856870000,15.036869873046875,9.771330833435059,0.06919243186712265,0.18013973534107208
1685475388876870000,15.056869873046875,9.789536476135254,0.04149630293250084,0.169997900724411
1685475388896870000,15.076869873046874,9.777230262756348,-0.0777253657579422,-0.19638200104236603
1685475388916870000,15.096869873046876,9.778417587280273,0.020465634763240814,0.0007469909032806754
1685475388936870000,15.116869873046875,9.791298866271973,0.02703532576560974,0.04548025503754616
1685475388956870000,15.136869873046875,9.802877426147461,0.009212887845933437,-0.014815320260822773
1685475388976870000,15.156869873046874,9.787755012512207,0.014039598405361176,0.11995908617973328
1685475388996871400,15.176871337890624,9.803384780883789,0.26201188564300537,0.26460719108581543
1685475389016870000,15.196869873046875,9.746402740478516,-0.03588429465889931,-0.26281630992889404
1685475389036870000,15.216869873046875,9.768878936767578,0.009931148961186409,-0.03444777429103851
1685475389056870000,15.236869873046874,9.767308235168457,0.02158612199127674,0.12526462972164154
1685475389076870000,15.256869873046876,9.755864143371582,-0.19125840067863464,-0.2855037450790405
1685475389096870000,15.276869873046875,9.780869483947754,0.06218220666050911,0.29855695366859436
1685475389116870000,15.296869873046875,9.825410842895508,-0.009260771796107292,-0.013876792974770069
1685475389136870000,15.316869873046874,9.815987586975098,-0.022668302059173584,-0.059041015803813934
1685475389156870000,15.336869873046876,9.770689010620117,-0.21322759985923767,-0.25031858682632446
1685475389176870000,15.356869873046875,9.779557228088379,-0.09104669839143753,-0.04212837293744087
1685475389196870000,15.376869873046875,9.80673599243164,-0.16919344663619995,-0.11739249527454376
1685475389216870000,15.396869873046874,9.764052391052246,-0.1041477769613266,-0.028605923056602478
1685475389236870000,15.416869873046876,9.777087211608887,-0.02827073261141777,0.12598289549350739
1685475389256870000,15.436869873046875,9.760604858398438,-0.03439031168818474,0.08004295080900192
1685475389276870000,15.456869873046875,9.797168731689453,-0.1167125478386879,-0.1412578970193863
1685475389296870000,15.476869873046875,9.801709175109863,-0.06975746154785156,-0.08635406196117401
1685475389316870000,15.496869873046874,9.792793273925781,-0.02732262946665287,0.028309039771556854
1685475389336870000,15.516869873046875,9.788396835327148,-0.07796478271484375,0.04438849911093712
1685475389356870000,15.536869873046875,9.82336139678955,0.05851428955793381,0.21282537281513214
1685475389376870000,15.556869873046875,9.773313522338867,0.0013599065132439137,0.22438457608222961
1685475389396870000,15.576869873046874,9.820220947265625,0.021739350631833076,0.04073015972971916
1685475389416870000,15.596869873046876,9.794142723083496,-0.015284583903849125,-0.14508862793445587
1685475389436870000,15.616869873046875,9.82320785522461,-0.02308010496199131,0.00824563018977642
1685475389456870000,15.636869873046875,9.78010368347168,-0.10532572120428085,-0.21583248674869537
1685475389476870000,15.656869873046874,9.807599067687988,0.011013327166438103,0.011520898900926113
1685475389496870000,15.676869873046876,9.767049789428711,0.05611051246523857,0.08957187831401825
1685475389516870000,15.696869873046875,9.784632682800293,-0.20147687196731567,-0.30582574009895325
1685475389536870000,15.716869873046875,9.794861793518066,0.06137775257229805,0.10794977098703384
1685475389556870000,15.736869873046874,9.785983085632324,-0.010611101984977722,0.19748333096504211
1685475389576870000,15.756869873046876,9.797781944274902,-0.07151959091424942,-0.05533478781580925
1685475389596870000,15.776869873046875,9.784164428710938,-0.23185449838638306,-0.2875435948371887
1685475389616870000,15.796869873046875,9.762443542480469,-0.092061847448349,-0.05978800728917122
1685475389636870000,15.816869873046874,9.775439262390137,0.024756046012043953,0.054089806973934174
1685475389656870000,15.836869873046876,9.82140827178955,-0.06519889831542969,-0.051743488758802414
1685475389676870000,15.856869873046875,9.770584106445312,0.11868536472320557,0.28622201085090637
1685475389696870000,15.876869873046875,9.779959678649902,-0.16166608035564423,-0.08837477117776871
1685475389716870000,15.896869873046874,9.813880920410156,-0.0767868310213089,-0.0011779472697526217
1685475389736871400,15.916871337890624,9.794123649597168,-0.11071746051311493,-0.017161637544631958
1685475389756870000,15.936869873046875,9.768965721130371,-0.09589256346225739,-0.24154621362686157
1685475389776870000,15.956869873046875,9.793482780456543,-0.0860380306839943,-0.09476250410079956
1685475389796870000,15.976869873046875,9.794564247131348,-0.002231396036222577,0.067181296646595
1685475389816870000,15.996869873046874,9.778579711914062,0.030176516622304916,0.16132129728794098
1685475389836870000,16.016869873046875,9.792562484741211,0.03439031168818474,0.09227253496646881
1685475389856870000,16.036869873046875,9.797121047973633,0.004434061702340841,0.2087935507297516
1685475389876870000,16.056869873046875,9.787458419799805,-0.035223495215177536,-0.007498639635741711
1685475389896870000,16.076869873046874,9.807013511657715,-0.051551952958106995,-0.034706346690654755
1685475389916870000,16.096869873046874,9.800769805908203,-0.05725015327334404,-0.027667393907904625
1685475389936870000,16.116869873046873,9.778206825256348,-0.043756432831287384,-0.022783223539590836
1685475389956870000,16.136869873046876,9.799840927124023,0.00038307227077893913,0.1226310133934021
1685475389976870000,16.156869873046876,9.799065589904785,0.02897941693663597,0.15352578461170197
1685475389996870000,16.176869873046876,9.788272857666016,0.05787264183163643,0.23289835453033447
1685475390016871400,16.196871337890624,9.765900611877441,-0.015916652977466583,0.1588696390390396
1685475390036870000,16.216869873046875,9.801105499267578,-0.07520666718482971,-0.013867216184735298
1685475390056870000,16.236869873046874,9.79224681854248,-0.08628702908754349,-0.3113802969455719
1685475390076870000,16.256869873046874,9.796853065490723,-0.08160397410392761,-0.28705519437789917
1685475390096870000,16.276869873046873,9.777374267578125,-0.09639056026935577,-0.2721441090106964
1685475390116870000,16.296869873046877,9.772355079650879,-0.10337205231189728,-0.3565541207790375
1685475390136870000,16.316869873046876,9.76445484161377,-0.07911399751901627,-0.34991735219955444
1685475390156870000,16.336869873046876,9.794429779052734,-0.018061857670545578,-0.002758120186626911
1685475390176870000,16.356869873046875,9.788033485412598,-0.018234239891171455,-0.008207323029637337
1685475390196870000,16.376869873046875,9.789650917053223,-0.02042732760310173,0.001158793573267758
1685475390216870000,16.396869873046874,9.800894737243652,-0.026221295818686485,0.008408436551690102
1685475390236870000,16.416869873046874,9.786375999450684,-0.01877054199576378,0.0027676972094923258
1685475390256870000,16.436869873046874,9.788846969604492,-0.04222413897514343,0.015045163221657276
1685475390276870000,16.456869873046877,9.790953636169434,-0.009730035439133644,0.007757213432341814
1685475390296870000,16.476869873046876,9.78592586517334,-0.0219213105738163,0.014623784460127354
1685475390316870000,16.496869873046876,9.791662216186523,-0.030559591948986053,0.00010534487955737859
1685475390336870000,16.516869873046875,9.784422874450684,-0.017812861129641533,0.011176133528351784
1685475390356870000,16.536869873046875,9.777881622314453,-0.02452620305120945,0.0071921818889677525
1685475390376870000,16.556869873046875,9.78548526763916,-0.013723564334213734,0.005353434942662716
1685475390396870000,16.576869873046874,9.785600662231445,-0.021672314032912254,0.001283292076550424
1685475390416870000,16.596869873046874,9.787113189697266,-0.02269703336060047,-0.0175351332873106
1685475390436870000,16.616869873046873,9.791500091552734,-0.021653160452842712,0.007029375992715359
1685475390456870000,16.636869873046876,9.783454895019531,-0.01168370433151722,-0.005133168306201696
1685475390476870000,16.656869873046876,9.794181823730469,-0.023453600704669952,-0.0010342950699850917
1685475390496870000,16.676869873046876,9.7771635055542,-0.01947922445833683,0.00562158552929759
1685475390516870000,16.696869873046875,9.79419994354248,-0.017688361927866936,0.001149216783232987
1685475390536870000,16.716869873046875,9.789067268371582,-0.020743364468216896,0.02057098038494587
1685475390556870000,16.736869873046874,9.784911155700684,-0.02758120372891426,0.010208875872194767
1685475390576870000,16.756869873046874,9.798663139343262,-0.03376782312989235,0.010017340071499348
1685475390596870000,16.776869873046873,9.779739379882812,-0.023070527240633965,0.004031835589557886
1685475390616870000,16.796869873046877,9.79481315612793,-0.043277591466903687,0.0055353944189846516
1685475390636870000,16.816869873046876,9.777527809143066,-0.022543802857398987,0.0010247182799503207
1685475390656870000,16.836869873046876,9.781089782714844,-0.016194378957152367,0.020350713282823563
1685475390676870000,16.856869873046875,9.780840873718262,-0.032168496400117874,-0.004252102226018906
1685475390696870000,16.876869873046875,9.787745475769043,-0.01339795347303152,0.013148955069482327
1685475390716870000,16.896869873046874,9.776300430297852,-0.01039083581417799,-0.007852981798350811
1685475390736870000,16.916869873046874,9.786174774169922,-0.03354755416512489,0.016290146857500076
1685475390756870000,16.936869873046874,9.784833908081055,-0.014097059145569801,0.006272808648645878
1685475390776870000,16.956869873046877,9.788827896118164,-0.011310209520161152,-0.007345410995185375
1685475390796870000,16.976869873046876,9.787017822265625,-0.02021663822233677,0.005889736115932465
1685475390816870000,16.996869873046876,9.784431457519531,-0.016998833045363426,-0.004778826609253883
1685475390836870000,17.016869873046875,9.790925025939941,-0.020446481183171272,-0.012114659883081913
1685475390856870000,17.036869873046875,9.7801513671875,-0.01604115031659603,0.0013120225630700588
1685475390876870000,17.056869873046875,9.79694938659668,-0.014815320260822773,-0.0005267243832349777
1685475390896870000,17.076869873046874,9.79121208190918,-0.024727316573262215,0.003064578166231513
1685475390916870000,17.096869873046874,9.789412498474121,-0.015466542914509773,0.008513781242072582
1685475390936870000,17.116869873046873,9.797082901000977,-0.019938912242650986,-0.010601525194942951
1685475390956870000,17.136869873046876,9.785179138183594,-0.012938265688717365,0.006445190869271755
1685475390976870000,17.156869873046876,9.792716026306152,-0.028711266815662384,0.008609549142420292
1685475390996870000,17.176869873046876,9.787994384765625,-0.018109740689396858,0.0063685765489935875
1685475391016870000,17.196869873046875,9.778810501098633,-0.016079457476735115,0.0046543278731405735
1685475391036870000,17.216869873046875,9.78864574432373,-0.02753331884741783,0.001455674646422267
1685475391056870000,17.236869873046874,9.787371635437012,-0.028299463912844658,0.0068186866119503975
1685475391076870000,17.256869873046874,9.791154861450195,-0.01468124520033598,0.00038307227077893913
1685475391096870000,17.276869873046873,9.793022155761719,-0.020934900268912315,-0.004472368862479925
1685475391116870000,17.296869873046877,9.793530464172363,-0.02007298730313778,0.003878606716170907
1685475391136870000,17.316869873046876,9.781769752502441,-0.01517923828214407,0.0063494229689240456
1685475391156870000,17.336869873046876,9.773064613342285,-0.025943569839000702,-0.00209732074290514
1685475391176870000,17.356869873046875,9.783339500427246,-0.02578076347708702,-0.0011683704797178507
1685475391196870000,17.376869873046875,9.780974388122559,-0.017401058226823807,0.0031603462994098663
1685475391216870000,17.396869873046874,9.79001522064209,-0.025483882054686546,0.0004501099174376577
1685475391236870000,17.416869873046874,9.794353485107422,-0.02208411507308483,0.007374141365289688
1685475391256870000,17.436869873046874,9.793846130371094,-0.02319502644240856,-0.0013407529331743717
1685475391276870000,17.456869873046877,9.79224681854248,-0.021250935271382332,-0.0027676972094923258
1685475391296870000,17.476869873046876,9.784297943115234,-0.018473658710718155,-0.008868123404681683
1685475391316870000,17.496869873046876,9.788578987121582,-0.008983044885098934,-0.005995080806314945
1685475391336870000,17.516869873046875,9.798251152038574,-0.031076738610863686,0.008552088402211666
1685475391356870000,17.536869873046875,9.791346549987793,-0.01333091501146555,0.014393940567970276
1685475391376870000,17.556869873046875,9.793731689453125,-0.011453861370682716,0.0014844050165265799
1685475391396870000,17.576869873046874,9.77686595916748,-0.03430412337183952,-0.007824251428246498
1685475391416870000,17.596869873046874,9.791040420532227,-0.024564510211348534,0.0013407529331743717
1685475391436870000,17.616869873046873,9.800683975219727,-0.015198391862213612,-0.0005075707449577749
1685475391456870000,17.636869873046876,9.79259204864502,-0.015284583903849125,0.006713341921567917
1685475391476870000,17.656869873046876,9.791853904724121,-0.017879897728562355,-0.003897760296240449
1685475391496870000,17.676869873046876,9.78913402557373,-0.017017986625432968,-0.003227383829653263
1685475391516870000,17.696869873046875,9.79089641571045,-0.022898145020008087,-0.003840299556031823
1685475391536870000,17.716869873046875,9.775506973266602,-0.015284583903849125,0.00694318488240242
1685475391556870000,17.736869873046874,9.785369873046875,-0.015073893591761589,0.0055353944189846516
1685475391576870000,17.756869873046874,9.776138305664062,-0.020954053848981857,0.009002198465168476
1685475391596870000,17.776869873046873,9.789191246032715,-0.026652254164218903,0.005659893155097961
1685475391616870000,17.796869873046877,9.789756774902344,-0.01715206168591976,-0.008705317042768002
1685475391636870000,17.816869873046876,9.790436744689941,-0.025694573298096657,0.017171215265989304
1685475391656870000,17.836869873046876,9.771149635314941,-0.010400412604212761,0.005669469945132732
1685475391676870000,17.856869873046875,9.792189598083496,-0.02028367668390274,-0.0010534487664699554
1685475391696870000,17.876869873046875,9.799324035644531,-0.009165003895759583,0.009998186491429806
1685475391716870000,17.896869873046874,9.81050968170166,-0.02947741188108921,0.008504204452037811
1685475391736870000,17.916869873046874,9.784728050231934,-0.02528277039527893,0.0063494229689240456
1685475391756870000,17.936869873046874,9.79322338104248,-0.03047339990735054,0.00883939303457737
1685475391776870000,17.956869873046877,9.782248497009277,-0.013043610379099846,-0.0059184664860367775
1685475391796870000,17.976869873046876,9.800530433654785,-0.022591687738895416,0.0018674773164093494
1685475391816870000,17.996869873046876,9.786337852478027,-0.02708321064710617,-0.0010821791365742683
1685475391836870000,18.016869873046875,9.800415992736816,-0.034371159970760345,0.009433154948055744
1685475391856870000,18.036869873046875,9.78837776184082,-0.02928587608039379,0.01649126037955284
1685475391876870000,18.056869873046875,9.789306640625,-0.020484788343310356,-0.002317587146535516
1685475391896870000,18.076869873046874,9.78200912475586,-0.02222776785492897,-0.0012258312199264765
1685475391916870000,18.096869873046874,9.785944938659668,-0.024803930893540382,0.010601525194942951
1685475391936870000,18.116869873046873,9.788033485412598,-0.012258312664926052,0.004175487905740738
1685475391956870000,18.136869873046876,9.794382095336914,-0.012717999517917633,0.011798625811934471
1685475391976870000,18.156869873046876,9.789430618286133,-0.02341529354453087,-0.0020111293997615576
1685475391996870000,18.176869873046876,9.792399406433105,-0.017611747607588768,0.015303737483918667
1685475392016870000,18.196869873046875,9.796728134155273,-0.027782315388321877,0.002298433566465974
1685475392036870000,18.216869873046875,9.782238960266113,-0.015868768095970154,0.009816226549446583
1685475392056870000,18.236869873046874,9.795272827148438,-0.020858285948634148,0.01003649365156889
1685475392076870000,18.256869873046874,9.78222942352295,-0.01663491316139698,0.0023558945395052433
1685475392096870000,18.276869873046873,9.791460990905762,-0.01369483396410942,0.010553641244769096
1685475392116870000,18.296869873046877,9.79743766784668,-0.02897941693663597,0.014307749457657337
1685475392136870000,18.316869873046876,9.789010047912598,-0.011281479150056839,0.011846509762108326
1685475392156870000,18.336869873046876,9.797015190124512,-0.02004425600171089,0.001944091753102839
1685475392176870000,18.356869873046875,9.794334411621094,-0.014269442297518253,0.0018579005263745785
1685475392196870000,18.376869873046875,9.804630279541016,-0.03738785535097122,-0.0068186866119503975
1685475392216870000,18.396869873046874,9.791088104248047,-0.01833958365023136,0.0010055646998807788
1685475392236870000,18.416869873046874,9.797073364257812,-0.021959617733955383,-0.006081271916627884
1685475392256870000,18.436869873046874,9.791356086730957,-0.020350713282823563,0.007881712168455124
1685475392276871400,18.456871337890625,9.792332649230957,-0.029017724096775055,-0.0015131353866308928
1685475392296870000,18.476869873046876,9.789650917053223,-0.026748022064566612,-0.0053917421028018
1685475392316870000,18.496869873046876,9.797063827514648,-0.023520637303590775,0.009375694207847118
1685475392336870000,18.516869873046875,9.808135032653809,-0.017161637544631958,-0.008264783769845963
1685475392356870000,18.536869873046875,9.787994384765625,-0.01791820488870144,0.0034668040461838245
1685475392376870000,18.556869873046875,9.78490161895752,-0.01838746853172779,0.004826710559427738
1685475392396870000,18.576869873046874,9.793453216552734,-0.0226299948990345,-0.001915361382998526
1685475392416870000,18.596869873046874,9.795703887939453,-0.021768081933259964,0.009117119945585728
1685475392436870000,18.616869873046873,9.785667419433594,-0.021978771314024925,0.010429142974317074
1685475392456870000,18.636869873046876,9.788549423217773,-0.023903708904981613,0.008791509084403515
1685475392476870000,18.656869873046876,9.78820514678955,-0.02012087032198906,0.0013694833032786846
1685475392496870000,18.676869873046876,9.801880836486816,-0.015648502856492996,0.009701305069029331
1685475392516870000,18.696869873046875,9.788252830505371,-0.01867477409541607,0.002442085649818182
1685475392536870000,18.716869873046875,9.800655364990234,-0.03192907199263573,0.006914454512298107
1685475392556870000,18.736869873046874,9.78615665435791,-0.017659632489085197,-0.001637633889913559
1685475392576870000,18.756869873046874,9.78051471710205,-0.03138319402933121,0.011367670260369778
1685475392596870000,18.776869873046873,9.78441333770752,-0.02793554589152336,-0.007517793215811253
1685475392616870000,18.796869873046877,9.799400329589844,-0.0239324402064085,-0.000488417164888233
1685475392636870000,18.816869873046876,9.787659645080566,-0.03026270866394043,0.014049175195395947
1685475392656870000,18.836869873046876,9.776808738708496,-0.030406363308429718,-0.000804451759904623
1685475392676870000,18.856869873046875,9.785820007324219,-0.020810401067137718,0.006789956241846085
1685475392696870000,18.876869873046875,9.786165237426758,-0.02516784891486168,0.009816226549446583
1685475392716870000,18.896869873046874,9.779557228088379,-0.02912306971848011,-0.0042904093861579895
1685475392736870000,18.916869873046874,9.782047271728516,-0.014154519885778427,0.00242293206974864
1685475392756870000,18.936869873046874,9.787870407104492,-0.02983175218105316,0.014719552360475063
1685475392776870000,18.956869873046877,9.794851303100586,-0.00938527099788189,-0.00019153613538946956
1685475392796870000,18.976869873046876,9.773408889770508,-0.0335283987224102,0.006703765131533146
1685475392816870000,18.996869873046876,9.7811279296875,-0.02104024589061737,0.021241357550024986
1685475392836870000,19.016869873046875,9.78712272644043,-0.029486987739801407,-0.005152322351932526
1685475392856870000,19.036869873046875,9.786500930786133,-0.0266618300229311,0.010160991922020912
1685475392876870000,19.056869873046875,9.78641414642334,-0.016740258783102036,0.0027006594464182854
1685475392896870000,19.076869873046874,9.791988372802734,-0.03203441947698593,-0.003064578166231513
1685475392916870000,19.096869873046874,9.780486106872559,-0.025483882054686546,0.006617573089897633
1685475392936870000,19.116869873046873,9.777143478393555,-0.02201707847416401,0.005449202843010426
1685475392956870000,19.136869873046876,9.787420272827148,-0.019651606678962708,0.01639549247920513
1685475392976870000,19.156869873046876,9.783148765563965,-0.019249381497502327,-0.0018387469463050365
1685475392996870000,19.176869873046876,9.799994468688965,-0.018148047849535942,0.00036391866160556674
1685475393016870000,19.196869873046875,9.789105415344238,-0.020350713282823563,-0.0005841852398589253
1685475393036870000,19.216869873046875,9.785781860351562,-0.021289242431521416,0.018732234835624695
1685475393056870000,19.236869873046874,9.778493881225586,-0.014930241741240025,-0.0026336219161748886
1685475393076870000,19.256869873046874,9.791145324707031,-0.016290146857500076,0.0076422919519245625
1685475393096870000,19.276869873046873,9.789238929748535,-0.018875887617468834,-0.006282385438680649
1685475393116870000,19.296869873046877,9.776607513427734,-0.02693955786526203,-0.006473921239376068
1685475393136870000,19.316869873046876,9.786835670471191,-0.030645782127976418,0.0025378537829965353
1685475393156870000,19.336869873046876,9.78969955444336,-0.01796608977019787,0.01729571260511875
1685475393176870000,19.356869873046875,9.792859077453613,-0.011664550751447678,0.008810662664473057
1685475393196870000,19.376869873046875,9.79268741607666,-0.012334927916526794,0.011089942418038845
1685475393216870000,19.396869873046874,9.780562400817871,-0.01368525717407465,0.002279279986396432
1685475393236870000,19.416869873046874,9.791097640991211,-0.03348051756620407,0.008149862289428711
1685475393256870000,19.436869873046874,9.791853904724121,-0.021203050389885902,0.0030071171931922436
1685475393276870000,19.456869873046877,9.789517402648926,-0.027715278789401054,0.016692375764250755
1685475393296870000,19.476869873046876,9.796700477600098,-0.027945121750235558,0.0006512228865176439
1685475393316870000,19.496869873046876,9.782774925231934,-0.018990809097886086,0.007805097382515669
1685475393336870000,19.516869873046875,9.794095039367676,-0.022562958300113678,0.0009002198348753154
1685475393356870000,19.536869873046875,9.783416748046875,-0.020446481183171272,-0.006550535559654236
1685475393376870000,19.556869873046875,9.791805267333984,-0.01697010174393654,0.0034668040461838245
1685475393396870000,19.576869873046874,9.799639701843262,-0.012038045562803745,0.004979939665645361
1685475393416870000,19.596869873046874,9.781702041625977,-0.011013327166438103,0.007220912259072065
1685475393436870000,19.616869873046873,9.78793716430664,-0.02291729860007763,0.00694318488240242
1685475393456870000,19.636869873046876,9.791614532470703,-0.02400905452668667,0.009806649759411812
1685475393476870000,19.656869873046876,9.783522605895996,-0.01459505409002304,0.009117119945585728
1685475393496870000,19.676869873046876,9.787764549255371,-0.021385010331869125,0.0036200329195708036
1685475393516870000,19.696869873046875,9.780840873718262,-0.01692221872508526,0.0025474305730313063
1685475393536870000,19.716869873046875,9.784096717834473,-0.02632664144039154,0.003955221269279718
1685475393556870000,19.736869873046874,9.790637969970703,-0.015773000195622444,0.01729571260511875
1685475393576870000,19.756869873046874,9.785993576049805,-0.024066515266895294,0.008446743711829185
1685475393596870000,19.776869873046873,9.794036865234375,-0.017554286867380142,-0.006856993772089481
1685475393616870000,19.796869873046877,9.792793273925781,-0.015380351804196835,0.000488417164888233
1685475393636870000,19.816869873046876,9.794755935668945,-0.03151727095246315,0.003706224262714386
1685475393656870000,19.836869873046876,9.801928520202637,-0.025110388174653053,-0.005669469945132732
1685475393676870000,19.856869873046875,9.783895492553711,-0.023214180022478104,0.006933608092367649
1685475393696870000,19.876869873046875,9.805030822753906,-0.020245369523763657,0.007680599112063646
1685475393716870000,19.896869873046874,9.789173126220703,-0.026556486263871193,0.010323798283934593
1685475393736870000,19.916869873046874,9.79427719116211,-0.029486987739801407,-0.0012258312199264765
1685475393756870000,19.936869873046874,9.80063533782959,-0.013867216184735298,-0.00019153613538946956
1685475393776870000,19.956869873046877,9.783857345581055,-0.026786329224705696,-0.00029688101494684815
1685475393796870000,19.976869873046876,9.783129692077637,-0.030157363042235374,-0.007910442538559437
1685475393816870000,19.996869873046876,9.798251152038574,-0.016309302300214767,0.012095506303012371
1685475393836870000,20.016869873046875,9.798049926757812,-0.020293252542614937,0.004031835589557886
1685475393856870000,20.036869873046875,9.776176452636719,-0.01838746853172779,0.0017334020230919123
1685475393876870000,20.056869873046875,9.778791427612305,-0.007661445531994104,0.001110909623093903
1685475393896870000,20.076869873046874,9.796114921569824,-0.02689167484641075,0.009471462108194828
1685475393916870000,20.096869873046874,9.791346549987793,-0.02692040428519249,-0.0031028855592012405
1685475393936870000,20.116869873046873,9.80130672454834,-0.01534204464405775,-0.009059659205377102
1685475393956870000,20.136869873046876,9.790102005004883,-0.023022644221782684,0.013972560875117779
1685475393976870000,20.156869873046876,9.798519134521484,-0.018454505130648613,0.010534487664699554
1685475393996870000,20.176869873046876,9.785150527954102,-0.025005042552947998,0.007852981798350811
1685475394016871400,20.196871337890624,9.781012535095215,-0.022878991439938545,0.01024718303233385
1685475394036870000,20.216869873046875,9.785562515258789,-0.024133551865816116,0.002221819246187806
1685475394056870000,20.236869873046874,9.790925025939941,-0.02893153391778469,0.010228029452264309
1685475394076870000,20.256869873046874,9.784987449645996,-0.01758301816880703,0.006646303925663233
1685475394096870000,20.276869873046873,9.792572021484375,-0.01715206168591976,0.01959414593875408
1685475394116870000,20.296869873046877,9.795158386230469,-0.02116474322974682,0.016558298841118813
1685475394136870000,20.316869873046876,9.798490524291992,-0.015744270756840706,-0.0037732617929577827
1685475394156870000,20.336869873046876,9.779748916625977,-0.01803312636911869,-0.00594719685614109
1685475394176870000,20.356869873046875,9.798758506774902,-0.019019538536667824,-0.0026431987062096596
1685475394196870000,20.376869873046875,9.788022994995117,-0.01907699927687645,0.0063781533390283585
1685475394216870000,20.396869873046874,9.78842544555664,-0.004031835589557886,0.012852074578404427
1685475394236870000,20.416869873046874,9.790810585021973,-0.01069729309529066,0.0006224924582056701
1685475394256870000,20.436869873046874,9.787601470947266,-0.0303297471255064,0.010927136056125164
1685475394276870000,20.456869873046877,9.796910285949707,-0.019057845696806908,-0.000823605339974165
1685475394296870000,20.476869873046876,9.786127090454102,-0.02762908674776554,0.00008619125583209097
1685475394316870000,20.496869873046876,9.781309127807617,-0.03477338328957558,0.0030071171931922436
1685475394336870000,20.516869873046875,9.795464515686035,-0.004127603489905596,0.004003105219453573
1685475394356870000,20.536869873046875,9.797073364257812,-0.02670971490442753,-0.006837840192019939
1685475394376870000,20.556869873046875,9.793558120727539,-0.025340231135487556,0.016251839697360992
1685475394396870000,20.576869873046874,9.781645774841309,-0.023396139964461327,0.005276820622384548
1685475394416870000,20.596869873046874,9.786970138549805,-0.02175850421190262,-0.0007565676933154464
1685475394436870000,20.616869873046873,9.791958808898926,-0.024210166186094284,0.0068091098219156265
1685475394456870000,20.636869873046876,9.78002643585205,-0.018828002735972404,0.004185064695775509
1685475394476870000,20.656869873046876,9.795397758483887,-0.021806389093399048,-0.006914454512298107
1685475394496870000,20.676869873046876,9.782516479492188,-0.011635820381343365,0.002930502872914076
1685475394516870000,20.696869873046875,9.789679527282715,-0.011865663342177868,0.004223371855914593
1685475394536870000,20.716869873046875,9.783024787902832,-0.023022644221782684,0.007603984791785479
1685475394556870000,20.736869873046874,9.79067611694336,-0.024191012606024742,-0.0039169141091406345
1685475394576870000,20.756869873046874,9.787688255310059,-0.023376986384391785,0.003830722765997052
1685475394596870000,20.776869873046873,9.78565788269043,-0.027025749906897545,0.0038115691859275103
1685475394616870000,20.796869873046877,9.793578147888184,-0.021892579272389412,-0.009452308528125286
1685475394636870000,20.816869873046876,9.780332565307617,-0.014815320260822773,0.006971915252506733
1685475394656870000,20.836869873046876,9.788990020751953,-0.032024841755628586,-0.0029975404031574726
1685475394676870000,20.856869873046875,9.789191246032715,-0.017448943108320236,0.00274854339659214
1685475394696870000,20.876869873046875,9.793807983398438,-0.02319502644240856,0.01258392445743084
1685475394716870000,20.896869873046874,9.780121803283691,-0.031038431450724602,0.003993528429418802
1685475394736870000,20.916869873046874,9.774031639099121,-0.016950948163866997,-0.010745177045464516
1685475394756871400,20.936871337890626,9.786481857299805,-0.008418013341724873,0.007307103835046291
1685475394776870000,20.956869873046877,9.776081085205078,-0.02274491637945175,0.004079719539731741
1685475394796870000,20.976869873046876,9.780486106872559,-0.0321110337972641,-0.008724471554160118
1685475394816870000,20.996869873046876,9.77109146118164,-0.026748022064566612,0.004960786085575819
1685475394836870000,21.016869873046875,9.803461074829102,-0.018559850752353668,0.007383718155324459
1685475394856870000,21.036869873046875,9.793069839477539,-0.0252348855137825,0.008705317042768002
1685475394876870000,21.056869873046875,9.799553871154785,-0.016405070200562477,0.004711789079010487
1685475394896870000,21.076869873046874,9.792811393737793,-0.01843535155057907,0.006004657596349716
1685475394916870000,21.096869873046874,9.783273696899414,-0.025627534836530685,0.007307103835046291
1685475394936870000,21.116869873046873,9.776655197143555,-0.020436905324459076,0.004050989169627428
1685475394956870000,21.136869873046876,9.782957077026367,-0.02331952564418316,-0.0013599065132439137
1685475394976870000,21.156869873046876,9.786117553710938,-0.02557007409632206,-0.011530475690960884
1685475394996870000,21.176869873046876,9.802982330322266,-0.025455152615904808,0.0010821791365742683
1685475395016871400,21.196871337890624,9.786003112792969,-0.020580556243658066,0.011559206061065197
1685475395036870000,21.216869873046875,9.794851303100586,-0.013024456799030304,0.01318726222962141
1685475395056871400,21.236871337890626,9.79366397857666,-0.016950948163866997,0.010295066982507706
1685475395076870000,21.256869873046874,9.781980514526367,-0.014221558347344398,0.005286397412419319
1685475395096870000,21.276869873046873,9.797284126281738,-0.03111504577100277,-0.007958326488733292
1685475395116870000,21.296869873046877,9.778685569763184,-0.03635355830192566,0.01488235779106617
1685475395136870000,21.316869873046876,9.787371635437012,-0.022754494100809097,0.014422670938074589
1685475395156870000,21.336869873046876,9.790159225463867,-0.0226299948990345,0.014097059145569801
1685475395176870000,21.356869873046875,9.796268463134766,-0.021720197051763535,0.013512874953448772
1685475395196870000,21.376869873046875,9.798089027404785,-0.019086576998233795,0.012746729888021946
1685475395216870000,21.396869873046874,9.774453163146973,-0.019182344898581505,0.0043861777521669865
1685475395236870000,21.416869873046874,9.795770645141602,-0.029209261760115623,-0.0003447650233283639
1685475395256870000,21.436869873046874,9.789641380310059,-0.030530860647559166,-0.0018579005263745785
1685475395276870000,21.456869873046877,9.78433609008789,-0.014872781001031399,-0.006062118336558342
1685475395296870000,21.476869873046876,9.795952796936035,-0.034869153052568436,0.013072340749204159
1685475395316870000,21.496869873046876,9.781357765197754,-0.01542823575437069,0.0025857379660010338
1685475395336870000,21.516869873046875,9.80228328704834,-0.03007117286324501,0.004663905128836632
1685475395356870000,21.536869873046875,9.79540729522705,-0.021432893350720406,-0.00007661445124540478
1685475395376870000,21.556869873046875,9.79056167602539,-0.027638664469122887,0.007048529572784901
1685475395396870000,21.576869873046874,9.791059494018555,-0.024143129587173462,-0.010860098525881767
1685475395416870000,21.596869873046874,9.801430702209473,-0.011099519208073616,-0.0015610195696353912
1685475395436870000,21.616869873046873,9.797198295593262,-0.01967076025903225,0.008552088402211666
1685475395456870000,21.636869873046876,9.78864574432373,-0.02516784891486168,-0.0008619126165285707
1685475395476870000,21.656869873046876,9.799409866333008,-0.007891288958489895,-0.010639832355082035
1685475395496870000,21.676869873046876,9.79289722442627,-0.014384363777935505,0.0017525556031614542
1685475395516870000,21.696869873046875,9.793578147888184,-0.004472368862479925,0.0004022258799523115
1685475395536870000,21.716869873046875,9.796019554138184,-0.018569426611065865,0.0063973069190979
1685475395556870000,21.736869873046874,9.781722068786621,-0.01542823575437069,-0.011722011491656303
1685475395576870000,21.756869873046874,9.791719436645508,-0.02319502644240856,-0.0020015526097267866
1685475395596870000,21.776869873046873,9.788799285888672,-0.019086576998233795,-0.002394201699644327
1685475395616870000,21.796869873046877,9.78320598602295,-0.01594538241624832,0.022256499156355858
1685475395636870000,21.816869873046876,9.787678718566895,-0.03399766609072685,-0.0053917421028018
1685475395656870000,21.836869873046876,9.796049118041992,-0.010477026924490929,0.017611747607588768
1685475395676870000,21.856869873046875,9.783273696899414,-0.018406622111797333,0.00562158552929759
1685475395696870000,21.876869873046875,9.791863441467285,-0.025129541754722595,-0.006177040748298168
1685475395716870000,21.896869873046874,9.782851219177246,-0.015035586431622505,-0.00209732074290514
1685475395736870000,21.916869873046874,9.801010131835938,-0.008121131919324398,-0.00242293206974864
1685475395756870000,21.936869873046874,9.787631034851074,-0.02891238033771515,0.005592855159193277
1685475395776870000,21.956869873046877,9.779959678649902,-0.01936430297791958,-0.000009576806405675597
1685475395796870000,21.976869873046876,9.796412467956543,-0.0052002063021063805,0.00549708679318428
1685475395816870000,21.996869873046876,9.789948463439941,-0.027236439287662506,0.01004607044160366
1685475395836870000,22.016869873046875,9.793042182922363,-0.029094340279698372,-0.003572148969396949
1685475395856870000,22.036869873046875,9.7949857711792,-0.0124977333471179,0.007776367012411356
1685475395876870000,22.056869873046875,9.789737701416016,-0.02021663822233677,-0.0019057845929637551
1685475395896870000,22.076869873046874,9.777095794677734,-0.009710881859064102,0.005075707565993071
1685475395916870000,22.096869873046874,9.784767150878906,-0.014173673465847969,0.014058751985430717
1685475395936870000,22.116869873046873,9.788636207580566,-0.019009962677955627,-0.012947842478752136
1685475395956870000,22.136869873046876,9.790081977844238,-0.02066675014793873,0.01348414458334446
1685475395976870000,22.156869873046876,9.7868070602417,-0.02928587608039379,0.01822466216981411
1685475395996870000,22.176869873046876,9.79148006439209,-0.029640216380357742,-0.015495273284614086
1685475396016870000,22.196869873046875,9.788664817810059,-0.02243845723569393,0.00027772740577347577
1685475396036870000,22.216869873046875,9.780237197875977,-0.024938005954027176,-0.006062118336558342
1685475396056870000,22.236869873046874,9.780094146728516,-0.03828807547688484,0.010726023465394974
1685475396076870000,22.256869873046874,9.782670021057129,-0.016510413959622383,-0.009184157475829124
1685475396096870000,22.276869873046873,9.799276351928711,-0.019469648599624634,-0.00994072575122118
1685475396116870000,22.296869873046877,9.783244132995605,-0.02232353575527668,0.006445190869271755
1685475396136870000,22.316869873046876,9.779404640197754,-0.009308655746281147,0.0004501099174376577
1685475396156870000,22.336869873046876,9.80654525756836,-0.03016694076359272,0.008264783769845963
1685475396176870000,22.356869873046875,9.802398681640625,-0.025110388174653053,0.004683058708906174
1685475396196870000,22.376869873046875,9.787046432495117,-0.016768990084528923,0.0020207061897963285
1685475396216870000,22.396869873046874,9.78320598602295,-0.02791639044880867,0.015093047171831131
1685475396236870000,22.416869873046874,9.780811309814453,-0.020532673224806786,0.003064578166231513
1685475396256870000,22.436869873046874,9.801066398620605,-0.016223110258579254,-0.0021452046930789948
1685475396276870000,22.456869873046877,9.787688255310059,-0.023511061444878578,0.0023271639365702868
1685475396296870000,22.476869873046876,9.790053367614746,-0.0293816439807415,0.004577713552862406
1685475396316870000,22.496869873046876,9.790273666381836,-0.016807297244668007,-0.00016280572162941098
1685475396336870000,22.516869873046875,9.803183555603027,-0.02009214088320732,0.0012928689830005169
1685475396356870000,22.536869873046875,9.787352561950684,-0.02547430619597435,-0.012765883468091488
1685475396376870000,22.556869873046875,9.78713321685791,-0.03196737915277481,0.011377247050404549
1685475396396870000,22.576869873046874,9.80167007446289,-0.012095506303012371,-0.01058237161487341
1685475396416870000,22.596869873046874,9.796786308288574,-0.025579649955034256,0.004022258799523115
1685475396436870000,22.616869873046873,9.789498329162598,-0.004510676022619009,0.007671022322028875
1685475396456870000,22.636869873046876,9.778428077697754,-0.01909615285694599,-0.011817779392004013
1685475396476870000,22.656869873046876,9.7756986618042,-0.015035586431622505,-0.006339846178889275
1685475396496870000,22.676869873046876,9.792036056518555,-0.02229480631649494,-0.004357446916401386
1685475396516870000,22.696869873046875,9.80189037322998,-0.020034680142998695,-0.010726023465394974
1685475396536870000,22.716869873046875,9.798385620117188,-0.026997018605470657,0.0038211459759622812
1685475396556870000,22.736869873046874,9.787908554077148,-0.015112200751900673,0.0057460842654109
1685475396576870000,22.756869873046874,9.792284965515137,-0.017046716064214706,0.00015322890249080956
1685475396596870000,22.776869873046873,9.799696922302246,-0.015907075256109238,0.0031411927193403244
1685475396616870000,22.796869873046877,9.790091514587402,-0.01909615285694599,-0.006837840192019939
1685475396636870000,22.816869873046876,9.796220779418945,-0.016836026683449745,0.0042904093861579895
1685475396656870000,22.836869873046876,9.798154830932617,-0.027341783046722412,0.011875240132212639
1685475396676870000,22.856869873046875,9.794075965881348,-0.02237142063677311,0.012555194087326527
1685475396696870000,22.876869873046875,9.805682182312012,-0.01886630989611149,0.012746729888021946
1685475396716870000,22.896869873046874,9.784297943115234,-0.02668098360300064,-0.006540958769619465
1685475396736870000,22.916869873046874,9.779950141906738,-0.01952710933983326,0.0009864111198112369
1685475396756870000,22.936869873046874,9.789689064025879,-0.015102623961865902,-0.01388636976480484
1685475396776870000,22.956869873046877,9.783244132995605,-0.024602817371487617,0.011013327166438103
1685475396796870000,22.976869873046876,9.809091567993164,-0.019632453098893166,-0.004060565959662199
1685475396816870000,22.996869873046876,9.80602741241455,-0.021001938730478287,0.018186355009675026
1685475396836870000,23.016869873046875,9.793012619018555,-0.02780146896839142,-0.006655880715698004
1685475396856870000,23.036869873046875,9.788396835327148,-0.02343444712460041,0.00319865345954895
1685475396876870000,23.056869873046875,9.783588409423828,-0.026441562920808792,0.006224924698472023
1685475396896870000,23.076869873046874,9.802839279174805,-0.013436260633170605,0.004137180279940367
1685475396916870000,23.096869873046874,9.791729927062988,-0.026173412799835205,0.006062118336558342
1685475396936870000,23.116869873046873,9.796106338500977,-0.036363136023283005,0.0035338415764272213
1685475396956870000,23.136869873046876,9.795042991638184,-0.016050728037953377,-0.001953668659552932
1685475396976870000,23.156869873046876,9.794296264648438,-0.019919758662581444,0.005688623525202274
1685475396996870000,23.176869873046876,9.782086372375488,-0.01779370754957199,0.004922478459775448
1685475397016870000,23.196869873046875,9.796537399291992,-0.023252487182617188,0.0034476504661142826
1685475397036870000,23.216869873046875,9.795990943908691,-0.026202142238616943,0.008667009882628918
1685475397056870000,23.236869873046874,9.789297103881836,-0.017161637544631958,-0.012852074578404427
1685475397076870000,23.256869873046874,9.799246788024902,-0.0247656237334013,-0.0058993129059672356
1685475397096870000,23.276869873046873,9.788750648498535,-0.027380090206861496,0.004175487905740738
1685475397116870000,23.296869873046877,9.790753364562988,-0.02047521248459816,-0.007709329482167959
1685475397136870000,23.316869873046876,9.790599822998047,-0.020647596567869186,0.006521805189549923
1685475397156870000,23.336869873046876,9.797715187072754,-0.023453600704669952,0.010457873344421387
1685475397176870000,23.356869873046875,9.79983139038086,-0.0111378263682127,0.006311115808784962
1685475397196870000,23.376869873046875,9.790828704833984,-0.029496565461158752,0.00978749617934227
1685475397216870000,23.396869873046874,9.771656036376953,-0.03578852862119675,-0.0006320692482404411
1685475397236870000,23.416869873046874,9.792265892028809,-0.026192566379904747,0.007307103835046291
1685475397256870000,23.436869873046874,9.787027359008789,-0.018684351816773415,0.0006799532566219568
1685475397276870000,23.456869873046877,9.79709243774414,-0.012430695816874504,0.007479486055672169
1685475397296870000,23.476869873046876,9.798624992370605,-0.018100164830684662,0.010371682234108448
1685475397316870000,23.496869873046876,9.795110702514648,-0.01656787469983101,0.0009385270532220602
1685475397336870000,23.516869873046875,9.777134895324707,-0.01158793643116951,0.00988326407968998
1685475397356870000,23.536869873046875,9.819588661193848,-0.025416845455765724,0.0034093433059751987
1685475397376870000,23.556869873046875,9.787832260131836,-0.020542249083518982,-0.0029783868230879307
1685475397396870000,23.576869873046874,9.788138389587402,-0.008619125932455063,-0.014997279271483421
1685475397416870000,23.596869873046874,9.797762870788574,-0.023903708904981613,0.005966350436210632
1685475397436870000,23.616869873046873,9.801661491394043,-0.02855803817510605,0.010860098525881767
1685475397456870000,23.636869873046876,9.781779289245605,-0.018425775691866875,-0.00823605339974165
1685475397476870000,23.656869873046876,9.78538990020752,-0.017717093229293823,0.010917559266090393
1685475397496870000,23.676869873046876,9.802982330322266,0.1495514214038849,0.5139393210411072
1685475397516870000,23.696869873046875,9.80624771118164,0.2036699503660202,0.5361096262931824
1685475397536870000,23.716869873046875,9.792160034179688,-0.19238847494125366,-0.42283517122268677
1685475397556870000,23.736869873046874,9.786395072937012,-0.05696284770965576,-0.09676405042409897
1685475397576870000,23.756869873046874,9.792773246765137,-0.010505757294595242,-0.028021736070513725
1685475397596870000,23.776869873046873,9.79051399230957,-0.07450754940509796,-0.1755811721086502
1685475397616870000,23.796869873046877,9.796613693237305,-0.02746628224849701,0.19278112053871155
1685475397636870000,23.816869873046876,9.793137550354004,-0.08564538508653641,0.10743261873722076
1685475397656870000,23.836869873046876,9.774088859558105,0.02353021502494812,0.23247699439525604
1685475397676870000,23.856869873046875,9.77895450592041,-0.024353818967938423,0.046246398240327835
1685475397696870000,23.876869873046875,9.78853988647461,-0.04143884405493736,-0.08914091438055038
1685475397716870000,23.896869873046874,9.791251182556152,-0.020034680142998695,-0.029295451939105988
1685475397736870000,23.916869873046874,9.77299690246582,-0.006263231858611107,0.039140406996011734
1685475397756870000,23.936869873046874,9.769512176513672,0.1132744699716568,0.44581952691078186
1685475397776870000,23.956869873046877,9.767854690551758,-0.03373908996582031,-0.17859786748886108
1685475397796870000,23.976869873046876,9.764626502990723,-0.011750741861760616,-0.12001653760671616
1685475397816870000,23.996869873046876,9.796585083007812,0.05527732893824577,0.07713159918785095
1685475397836870000,24.016869873046875,9.78756332397461,0.07900866121053696,0.1305893361568451
1685475397856870000,24.036869873046875,9.785715103149414,0.030492553487420082,0.16793888807296753
1685475397876870000,24.056869873046875,9.793893814086914,0.004462792072445154,0.14807657897472382
1685475397896870000,24.076869873046874,9.798653602600098,-0.06529466807842255,0.07169197499752045
1685475397916870000,24.096869873046874,9.81525993347168,-0.03339432552456856,-0.0715579017996788
1685475397936870000,24.116869873046873,9.762730598449707,-0.05234682559967041,-0.10001058876514435
1685475397956870000,24.136869873046876,9.799160957336426,-0.042837053537368774,-0.0942070484161377
1685475397976870000,24.156869873046876,9.78494930267334,-0.11666465550661087,-0.2981738746166229
1685475397996870000,24.176869873046876,9.777277946472168,0.13123098015785217,0.2958562970161438
