time,seconds_elapsed,z,y,x
1685476169437722600,0.17972265625,0.0012915435945615172,0.0018500490114092827,-0.00006981316983001307
1685476169457722600,0.19972265625,0.0012915435945615172,0.0006457717972807586,0.002373647876083851
1685476169477721000,0.21972119140625,0.00010471975838299841,0.00047123889089562,0.00094247778179124
1685476169497721000,0.23972119140625,-0.00040142572834156454,-0.00013962633966002613,0.001343903481028974
1685476169517728800,0.259728759765625,0.00022689280740451068,0.00006981316983001307,0.0012217304902151227
1685476169537721000,0.27972119140625,-0.0008028514566831291,0.0010471974965184927,0.0019024088978767395
1685476169557722600,0.29972265625,0,0.00020943951676599681,0.0008377580670639873
1685476169577721000,0.31972119140625,-0.00022689280740451068,-0.00029670598451048136,0.0006632251315750182
1685476169597722600,0.33972265625,0.00024434609804302454,0.0007853981805965304,0.001518436474725604
1685476169617724200,0.35972412109375,-0.00041887903353199363,0.0005410520825535059,0.0021293016616255045
1685476169637721000,0.37972119140625,0.0002617993741296232,0.0009250245057046413,0.0016406094655394554
1685476169657721000,0.39972119140625,0.00020943951676599681,0.00031415926059708,0.0016755161341279745
1685476169677721000,0.41972119140625,0.00045378561480902135,0.0002617993741296232,0.0009075712296180427
1685476169697721000,0.43972119140625,-0.00017453292093705386,0.00027925267932005227,0.001518436474725604
1685476169717722600,0.45972265625,-0.00045378561480902135,-0.00022689280740451068,0.0006457717972807586
1685476169737721000,0.47972119140625,0.00006981316983001307,-0.00012217304902151227,0.00062831852119416
1685476169757721000,0.49972119140625,-0.00043633230961859226,0.0011868239380419254,0.0005410520825535059
1685476169777721000,0.51972119140625,0.00017453292093705386,-0.00013962633966002613,0.0016929693520069122
1685476169797721000,0.53972119140625,-0.000017453292457503267,0.0005235987482592463,0.0005061454721726477
1685476169817721000,0.55972119140625,0.00020943951676599681,0.0005061454721726477,0.001343903481028974
1685476169837721000,0.57972119140625,-0.0010821041651070118,0.0008377580670639873,0.0003490658418741077
1685476169857721000,0.59972119140625,-0.00024434609804302454,-0.0007679448463022709,0.0012915435945615172
1685476169877721000,0.61972119140625,-0.00015707963029854,0.0011344640515744686,0.0005061454721726477
1685476169897721000,0.63972119140625,-0.00006981316983001307,-0.00045378561480902135,0.0003316125657875091
1685476169917721000,0.65972119140625,-0.000017453292457503267,0.00047123889089562,0.0016755161341279745
1685476169937721000,0.67972119140625,0.00019198621157556772,-0.00012217304902151227,0.0008901178953237832
1685476169957721000,0.69972119140625,-0.00024434609804302454,0.0003490658418741077,0.00012217304902151227
1685476169977721000,0.71972119140625,-0.00045378561480902135,0.00038397242315113544,0.0003490658418741077
1685476169997721000,0.73972119140625,-0.0007679448463022709,0.0006981316837482154,0.00125663704238832
1685476170017721000,0.75972119140625,0.0006632251315750182,-0.00010471975838299841,0.0005235987482592463
1685476170037721000,0.77972119140625,0.00012217304902151227,0.0003490658418741077,0.0017802357906475663
1685476170057721000,0.79972119140625,-0.0012391837080940604,-0.0009773843921720982,0.00038397242315113544
1685476170077722600,0.81972265625,-0.0005061454721726477,0.0002617993741296232,0.0014486232539638877
1685476170097721000,0.83972119140625,-0.000052359879191499203,0.00038397242315113544,0.0003316125657875091
1685476170117721000,0.85972119140625,0.00019198621157556772,0.00020943951676599681,0.001483529806137085
1685476170137721000,0.87972119140625,-0.00003490658491500653,0.000017453292457503267,0.0007679448463022709
1685476170157721000,0.89972119140625,-0.00043633230961859226,0.0010646508308127522,0.002251474652439356
1685476170177721000,0.91972119140625,-0.00006981316983001307,0,0.0012915435945615172
1685476170197721000,0.93972119140625,-0.00038397242315113544,-0.0003316125657875091,0.0006108652451075613
1685476170217721000,0.95972119140625,-0.0005235987482592463,-0.0007504915702156723,-0.000017453292457503267
1685476170237721000,0.97972119140625,-0.0005585053586401045,0.0009948377264663577,0.002775073517113924
1685476170257721000,0.99972119140625,-0.000052359879191499203,0.001029744278639555,0.0028623400721699
1685476170277721000,1.01972119140625,0.00027925267932005227,0.0011868239380419254,0.0008552113431505859
1685476170297721000,1.03972119140625,-0.0008203047327697277,0.00031415926059708,0.0007853981805965304
1685476170317721000,1.05972119140625,-0.0005410520825535059,0.0015533430268988013,0.0015882495790719986
1685476170337722600,1.07972265625,0,-0.00041887903353199363,0.0006981316837482154
1685476170357722600,1.09972265625,0.000017453292457503267,0.0008028514566831291,0.00125663704238832
1685476170377721000,1.11972119140625,0.0006457717972807586,0.00010471975838299841,0.0009773843921720982
1685476170397721000,1.13972119140625,-0.00022689280740451068,0.0005061454721726477,0.0014486232539638877
1685476170417722600,1.15972265625,-0.00031415926059708,0.0012391837080940604,0.0008377580670639873
1685476170437721000,1.17972119140625,-0.0003316125657875091,-0.00010471975838299841,0.001117010717280209
1685476170457721000,1.19972119140625,-0.0005934119690209627,0.0010122909443452954,0.001029744278639555
1685476170477721000,1.21972119140625,0.00008726646046852693,0.0013089969288557768,0.0021642083302140236
1685476170497721000,1.23972119140625,0.00019198621157556772,0.0007330382941290736,0.0026354470755904913
1685476170517721000,1.25972119140625,-0.00010471975838299841,0.001029744278639555,0.0013962633674964309
1685476170537721000,1.27972119140625,-0.0005235987482592463,0.0008028514566831291,0.002460914198309183
1685476170557721000,1.29972119140625,-0.00017453292093705386,0.0008203047327697277,0.0015533430268988013
1685476170577721000,1.31972119140625,-0.00012217304902151227,0.0011344640515744686,0.0005235987482592463
1685476170597721000,1.33972119140625,0.00015707963029854,0.0005061454721726477,0.0011344640515744686
1685476170617721000,1.35972119140625,0.00003490658491500653,0.0006457717972807586,0.00041887903353199363
1685476170637721000,1.37972119140625,-0.0003316125657875091,0.0002617993741296232,-0.000052359879191499203
1685476170657721000,1.39972119140625,-0.0006806784076616168,0.0005061454721726477,0.001117010717280209
1685476170677721000,1.41972119140625,0.00013962633966002613,-0.00010471975838299841,0.00038397242315113544
1685476170697721000,1.43972119140625,-0.00015707963029854,0.0002617993741296232,0.0003665191470645368
1685476170717721000,1.45972119140625,0.00029670598451048136,0.0018500490114092827,0.0019896754529327154
1685476170737722600,1.47972265625,-0.000052359879191499203,0.0007679448463022709,0.0006632251315750182
1685476170757721000,1.49972119140625,-0.0003316125657875091,0.0007504915702156723,0.00029670598451048136
1685476170777721000,1.51972119140625,-0.0007504915702156723,0.00022689280740451068,0.0009773843921720982
1685476170797721000,1.53972119140625,-0.00013962633966002613,0.0009599310578778386,0.0009599310578778386
1685476170817721000,1.55972119140625,0.00006981316983001307,0.00031415926059708,0.0005410520825535059
1685476170837721000,1.57972119140625,0,0.00125663704238832,0.0009773843921720982
1685476170857721000,1.59972119140625,0.0002617993741296232,0.0006981316837482154,0.0005410520825535059
1685476170877721000,1.61972119140625,0.0005585053586401045,-0.00020943951676599681,0.0007679448463022709
1685476170897721000,1.63972119140625,0.0007330382941290736,0.0009773843921720982,0.0005585053586401045
1685476170917722600,1.65972265625,-0.00017453292093705386,-0.00019198621157556772,0.0009250245057046413
1685476170937721000,1.67972119140625,0.00029670598451048136,0.000052359879191499203,0.0014137167017906904
1685476170957721000,1.69972119140625,-0.00043633230961859226,0.00041887903353199363,0.00031415926059708
1685476170977721000,1.71972119140625,0.00027925267932005227,0.000052359879191499203,0.00031415926059708
1685476170997721000,1.73972119140625,0.00062831852119416,0.00012217304902151227,0.00125663704238832
1685476171017721000,1.75972119140625,0.0002617993741296232,-0.0002617993741296232,-0.00024434609804302454
1685476171037721000,1.77972119140625,0.0005061454721726477,0.0012915435945615172,0.000052359879191499203
1685476171057721000,1.79972119140625,-0.0007330382941290736,0,0.00020943951676599681
1685476171077721000,1.81972119140625,0.00010471975838299841,0.00047123889089562,0.0011693706037476659
1685476171097721000,1.83972119140625,0,0.0014486232539638877,0.0007330382941290736
1685476171117721000,1.85972119140625,-0.0004886921960860491,-0.0007679448463022709,0.0005235987482592463
1685476171137721000,1.87972119140625,0.000017453292457503267,0.0008203047327697277,0.0007853981805965304
1685476171157721000,1.89972119140625,0.00029670598451048136,0,0.00062831852119416
1685476171177721000,1.91972119140625,-0.0003490658418741077,-0.0006632251315750182,0.00013962633966002613
1685476171197721000,1.93972119140625,-0.00027925267932005227,0.0008028514566831291,0.00062831852119416
1685476171217721000,1.95972119140625,0,0,0.0010646508308127522
1685476171237721000,1.97972119140625,0.00022689280740451068,0.00008726646046852693,-0.00020943951676599681
1685476171257721000,1.99972119140625,0.0002617993741296232,0.0011344640515744686,0.0010646508308127522
1685476171277721000,2.01972119140625,0,0.0003316125657875091,0.0010646508308127522
1685476171297721000,2.03972119140625,0,-0.00006981316983001307,0.001029744278639555
1685476171317721000,2.05972119140625,-0.00029670598451048136,-0.0011344640515744686,-0.0007330382941290736
1685476171337721000,2.07972119140625,-0.00027925267932005227,-0.000052359879191499203,0.0008203047327697277
1685476171357721000,2.09972119140625,0.00022689280740451068,-0.00019198621157556772,0.00010471975838299841
1685476171377721000,2.11972119140625,-0.0007330382941290736,-0.000017453292457503267,0.0003665191470645368
1685476171397721000,2.13972119140625,-0.0007504915702156723,0.00020943951676599681,0.0009250245057046413
1685476171417721000,2.15972119140625,0,0.0007504915702156723,0.0003665191470645368
1685476171437721000,2.17972119140625,0.00012217304902151227,0.00006981316983001307,0.0006981316837482154
1685476171457721000,2.19972119140625,0.00027925267932005227,0.0016755161341279745,0.00143117003608495
1685476171477721000,2.21972119140625,-0.00020943951676599681,-0.0003665191470645368,0.0007853981805965304
1685476171497721000,2.23972119140625,0.00020943951676599681,-0.0005934119690209627,-0.00027925267932005227
1685476171517721000,2.25972119140625,-0.0011693706037476659,0.00006981316983001307,0.0009599310578778386
1685476171537721000,2.27972119140625,-0.0010995573829859495,0.0011519172694534063,0.0019024088978767395
1685476171557721000,2.29972119140625,-0.00020943951676599681,0.001658062799833715,0.0007679448463022709
1685476171577721000,2.31972119140625,-0.00027925267932005227,0.0002617993741296232,-0.00003490658491500653
1685476171597721000,2.33972119140625,-0.0005934119690209627,0.0005061454721726477,0.0012740903766825795
1685476171617721000,2.35972119140625,-0.00022689280740451068,0.0004886921960860491,0.00012217304902151227
1685476171637721000,2.37972119140625,0.00027925267932005227,0.0015009831404313445,0.0005759586347267032
1685476171657721000,2.39972119140625,0.00013962633966002613,-0.0007679448463022709,0.0008901178953237832
1685476171677721000,2.41972119140625,-0.00008726646046852693,0.00010471975838299841,0.0005235987482592463
1685476171697721000,2.43972119140625,0.0002617993741296232,0.00038397242315113544,0.0010122909443452954
1685476171717721000,2.45972119140625,-0.00047123889089562,0.00045378561480902135,0.0008726646192371845
1685476171737721000,2.47972119140625,0.0007853981805965304,0.00012217304902151227,0.00006981316983001307
1685476171757721000,2.49972119140625,-0.0006632251315750182,-0.00020943951676599681,0.00024434609804302454
1685476171777721000,2.51972119140625,0.0006108652451075613,0.00020943951676599681,0.0005061454721726477
1685476171797721000,2.53972119140625,0.00022689280740451068,-0.00062831852119416,0.00022689280740451068
1685476171817721000,2.55972119140625,0.0002617993741296232,-0.000017453292457503267,-0.00008726646046852693
1685476171837721000,2.57972119140625,-0.00024434609804302454,0.00047123889089562,0.0009948377264663577
1685476171857721000,2.59972119140625,-0.0009599310578778386,0.0009599310578778386,0.0005934119690209627
1685476171877721000,2.61972119140625,-0.00013962633966002613,0.0005759586347267032,0.0003490658418741077
1685476171897721000,2.63972119140625,-0.0005934119690209627,0.00006981316983001307,0.0008552113431505859
1685476171917721000,2.65972119140625,0.00015707963029854,-0.0005061454721726477,0.0003665191470645368
1685476171937721000,2.67972119140625,0.0005934119690209627,0.0010122909443452954,0.00143117003608495
1685476171957721000,2.69972119140625,0.00010471975838299841,0.0006457717972807586,0.0011344640515744686
1685476171977780500,2.719780517578125,0.00029670598451048136,0.00008726646046852693,0.0005585053586401045
1685476171997721000,2.73972119140625,0,0.000052359879191499203,0.00031415926059708
1685476172017721000,2.75972119140625,0,0.0006457717972807586,0.0006981316837482154
1685476172037721000,2.77972119140625,-0.0007679448463022709,0.00043633230961859226,0.000715585018042475
1685476172057721000,2.79972119140625,0.00029670598451048136,0.0006632251315750182,0.0005061454721726477
1685476172077721000,2.81972119140625,0.00013962633966002613,0.00045378561480902135,0.0018675023457035422
1685476172097721000,2.83972119140625,-0.00013962633966002613,0.00043633230961859226,0.0019896754529327154
1685476172117721000,2.85972119140625,0.00012217304902151227,-0.00017453292093705386,0.00015707963029854
1685476172137721000,2.87972119140625,0.00024434609804302454,0,0.0005759586347267032
1685476172157721000,2.89972119140625,0.00022689280740451068,0.0008726646192371845,0.0007504915702156723
1685476172177721000,2.91972119140625,-0.0004886921960860491,-0.0003490658418741077,0.0005759586347267032
1685476172197721000,2.93972119140625,0.00040142572834156454,0.0005934119690209627,0.0007853981805965304
1685476172217721000,2.95972119140625,-0.00019198621157556772,0.0005585053586401045,0.00040142572834156454
1685476172237721000,2.97972119140625,-0.00024434609804302454,0.0012217304902151227,0.0003490658418741077
1685476172257721000,2.99972119140625,0.00027925267932005227,0.00031415926059708,0.0009075712296180427
1685476172277721000,3.01972119140625,0,0.00043633230961859226,0.0010995573829859495
1685476172297721000,3.03972119140625,0.00029670598451048136,-0.00008726646046852693,0.00024434609804302454
1685476172317721000,3.05972119140625,-0.00041887903353199363,0.0018325956771150231,0.0007679448463022709
1685476172337721000,3.07972119140625,-0.00022689280740451068,0.00041887903353199363,0.000715585018042475
1685476172357721000,3.09972119140625,-0.00015707963029854,-0.00020943951676599681,0.0003665191470645368
1685476172377721000,3.11972119140625,0.00024434609804302454,0.0013264502631500363,0.0015533430268988013
1685476172397721000,3.13972119140625,0,-0.00008726646046852693,0.0006457717972807586
1685476172417721000,3.15972119140625,-0.00031415926059708,0.0011344640515744686,0.0016755161341279745
1685476172437721000,3.17972119140625,-0.0006108652451075613,0.0005235987482592463,0.0011693706037476659
1685476172457721000,3.19972119140625,0.00045378561480902135,-0.0008901178953237832,0.00020943951676599681
1685476172477721000,3.21972119140625,0.00027925267932005227,-0.00043633230961859226,0.0007853981805965304
1685476172497721000,3.23972119140625,-0.00012217304902151227,0.00015707963029854,-0.0008377580670639873
1685476172517721000,3.25972119140625,-0.0010995573829859495,0.00029670598451048136,-0.0005235987482592463
1685476172537721000,3.27972119140625,-0.00041887903353199363,0.0007679448463022709,0.001343903481028974
1685476172557721000,3.29972119140625,-0.00019198621157556772,-0.000017453292457503267,0.001029744278639555
1685476172577721000,3.31972119140625,-0.00045378561480902135,0.00029670598451048136,0.00062831852119416
1685476172597721000,3.33972119140625,0.00012217304902151227,0.0008726646192371845,0.0011344640515744686
1685476172617721000,3.35972119140625,0,0.00062831852119416,0.0008552113431505859
1685476172637721000,3.37972119140625,-0.0005759586347267032,-0.0004886921960860491,-0.00031415926059708
1685476172657721000,3.39972119140625,-0.0004886921960860491,0,0.0009250245057046413
1685476172677721000,3.41972119140625,-0.0006457717972807586,-0.0008028514566831291,-0.0008726646192371845
1685476172697721000,3.43972119140625,-0.0005061454721726477,-0.00045378561480902135,0.00024434609804302454
1685476172717721000,3.45972119140625,-0.00015707963029854,0.0005235987482592463,0.0003665191470645368
1685476172737721000,3.47972119140625,0.00027925267932005227,0.001117010717280209,0.00027925267932005227
1685476172757721000,3.49972119140625,-0.00012217304902151227,0.0003665191470645368,0.0006632251315750182
1685476172777721000,3.51972119140625,-0.0008726646192371845,0.0003665191470645368,0.0009250245057046413
1685476172797721000,3.53972119140625,-0.00027925267932005227,0.0009075712296180427,0.0009075712296180427
1685476172817721000,3.55972119140625,0.00022689280740451068,0.00040142572834156454,0.0011344640515744686
1685476172837721000,3.57972119140625,-0.0005061454721726477,-0.0005410520825535059,0.0010821041651070118
1685476172857721000,3.59972119140625,0.00029670598451048136,0.00006981316983001307,0.0009773843921720982
1685476172877721000,3.61972119140625,0.00029670598451048136,-0.00027925267932005227,0.0008203047327697277
1685476172897721000,3.63972119140625,-0.0006806784076616168,0.00022689280740451068,0.00008726646046852693
1685476172917721000,3.65972119140625,-0.00017453292093705386,0.0009250245057046413,0.00045378561480902135
1685476172937721000,3.67972119140625,-0.00031415926059708,0.00020943951676599681,0.0015533430268988013
1685476172957721000,3.69972119140625,0.00006981316983001307,-0.0005061454721726477,-0.00019198621157556772
1685476172977721000,3.71972119140625,0.00029670598451048136,0.0005585053586401045,0.00041887903353199363
1685476172997721000,3.73972119140625,-0.00006981316983001307,0.0006632251315750182,0.0017802357906475663
1685476173017721000,3.75972119140625,0.00029670598451048136,0.0008901178953237832,0.0006806784076616168
1685476173037721000,3.77972119140625,0.00019198621157556772,0.0004886921960860491,0.0014486232539638877
1685476173057721000,3.79972119140625,0.00024434609804302454,-0.00038397242315113544,0.0005934119690209627
1685476173077721000,3.81972119140625,-0.00003490658491500653,0.0006457717972807586,0.00015707963029854
1685476173097721000,3.83972119140625,0.00024434609804302454,-0.00008726646046852693,0.0002617993741296232
1685476173117721000,3.85972119140625,0.0004886921960860491,0.00029670598451048136,0.00006981316983001307
1685476173137721000,3.87972119140625,0.00029670598451048136,0.0003665191470645368,0.0002617993741296232
1685476173157721000,3.89972119140625,-0.0006981316837482154,-0.0006632251315750182,-0.00031415926059708
1685476173177721000,3.91972119140625,0.0002617993741296232,0.0014137167017906904,0.0016057029133662581
1685476173197721000,3.93972119140625,-0.00010471975838299841,0.0006806784076616168,0.0012217304902151227
1685476173217721000,3.95972119140625,0.000017453292457503267,0.0005410520825535059,0.00043633230961859226
1685476173237721000,3.97972119140625,0.0002617993741296232,-0.00015707963029854,0.00045378561480902135
1685476173257721000,3.99972119140625,0.00012217304902151227,0.0003316125657875091,0.0008028514566831291
1685476173277721000,4.01972119140625,0.00031415926059708,0.0005934119690209627,0.00029670598451048136
1685476173297721000,4.03972119140625,-0.00003490658491500653,0.00062831852119416,0.0003490658418741077
1685476173317721000,4.05972119140625,0.0005410520825535059,-0.00003490658491500653,-0.00043633230961859226
1685476173337721000,4.07972119140625,-0.00010471975838299841,-0.0006108652451075613,0.00038397242315113544
1685476173357721000,4.09972119140625,0.0006632251315750182,-0.0005061454721726477,0.0013962633674964309
1685476173377721000,4.11972119140625,0.00029670598451048136,0.0003316125657875091,0.002007128670811653
1685476173397721000,4.13972119140625,-0.00020943951676599681,0.0006981316837482154,0.0011868239380419254
1685476173417721000,4.15972119140625,0,0.0005585053586401045,0.00015707963029854
1685476173437721000,4.17972119140625,-0.00024434609804302454,-0.0004886921960860491,0.00020943951676599681
1685476173457721000,4.19972119140625,-0.00015707963029854,0.0008552113431505859,0.0015009831404313445
1685476173477721000,4.21972119140625,0.00041887903353199363,0.00017453292093705386,0.0005061454721726477
1685476173497721000,4.23972119140625,0.00029670598451048136,0.0003316125657875091,0.0009773843921720982
1685476173517721000,4.25972119140625,0.00006981316983001307,-0.0007330382941290736,0.0013264502631500363
1685476173537721000,4.27972119140625,-0.0004886921960860491,0.00017453292093705386,0.0014137167017906904
1685476173557721000,4.29972119140625,-0.0007330382941290736,0,-0.00019198621157556772
1685476173577721000,4.31972119140625,-0.00013962633966002613,0.000017453292457503267,0.0005934119690209627
1685476173597721000,4.33972119140625,-0.00027925267932005227,0.000017453292457503267,0.00040142572834156454
1685476173617721000,4.35972119140625,-0.00019198621157556772,0.00024434609804302454,0.000017453292457503267
1685476173637721000,4.37972119140625,-0.00022689280740451068,0.0006457717972807586,0.0003490658418741077
1685476173657721000,4.39972119140625,-0.00010471975838299841,-0.00024434609804302454,-0.00013962633966002613
1685476173677721000,4.41972119140625,0.00020943951676599681,-0.00040142572834156454,0.000017453292457503267
1685476173697721000,4.43972119140625,0,-0.00008726646046852693,-0.0009948377264663577
1685476173717721000,4.45972119140625,0.00006981316983001307,-0.0006981316837482154,0.00003490658491500653
1685476173737721000,4.47972119140625,-0.0005061454721726477,-0.000052359879191499203,0.0013962633674964309
1685476173757721000,4.49972119140625,0.0007504915702156723,0.0005235987482592463,-0.0011344640515744686
1685476173777721000,4.51972119140625,0.00024434609804302454,-0.00019198621157556772,0.00003490658491500653
1685476173797721000,4.53972119140625,0.000017453292457503267,0.00012217304902151227,0.0004886921960860491
1685476173817721000,4.55972119140625,-0.00019198621157556772,0.00012217304902151227,0.0009773843921720982
1685476173837721000,4.57972119140625,-0.00010471975838299841,0.0005410520825535059,0
1685476173857721000,4.59972119140625,0.0002617993741296232,0.00041887903353199363,-0.00006981316983001307
1685476173877721000,4.61972119140625,-0.00017453292093705386,-0.00027925267932005227,-0.0003665191470645368
1685476173897721000,4.63972119140625,0.00024434609804302454,0.00038397242315113544,0.0006108652451075613
1685476173917721000,4.65972119140625,-0.00010471975838299841,0.0005410520825535059,0.0018500490114092827
1685476173937721000,4.67972119140625,0.00015707963029854,-0.0008552113431505859,0.000052359879191499203
1685476173957721000,4.69972119140625,0.0004886921960860491,0,-0.00013962633966002613
1685476173977721000,4.71972119140625,-0.00020943951676599681,-0.0007330382941290736,0.00041887903353199363
1685476173997721000,4.73972119140625,-0.00062831852119416,0.0005410520825535059,0.0003665191470645368
1685476174017721000,4.75972119140625,-0.0003316125657875091,0.00027925267932005227,-0.00008726646046852693
1685476174037721000,4.77972119140625,-0.00008726646046852693,0.0008203047327697277,0.0006632251315750182
1685476174057721000,4.79972119140625,0,-0.0003316125657875091,-0.000052359879191499203
1685476174077721000,4.81972119140625,0.00010471975838299841,-0.0003665191470645368,-0.00024434609804302454
1685476174097721000,4.83972119140625,-0.00012217304902151227,-0.0010122909443452954,-0.00010471975838299841
1685476174117721000,4.85972119140625,0.00008726646046852693,0.00020943951676599681,0.0009948377264663577
1685476174137721000,4.87972119140625,0.0002617993741296232,0,-0.00008726646046852693
1685476174157721000,4.89972119140625,0.00038397242315113544,0.0005585053586401045,0.0003490658418741077
1685476174177721000,4.91972119140625,-0.0005061454721726477,0.0005061454721726477,-0.001029744278639555
1685476174197721000,4.93972119140625,0.00031415926059708,0.00027925267932005227,-0.00006981316983001307
1685476174217721000,4.95972119140625,-0.00041887903353199363,0,0.000017453292457503267
1685476174237721000,4.97972119140625,-0.00027925267932005227,0,-0.0005759586347267032
1685476174257721000,4.99972119140625,-0.0003316125657875091,-0.0005235987482592463,-0.00013962633966002613
1685476174277721000,5.01972119140625,-0.0009075712296180427,0.000052359879191499203,-0.0008203047327697277
1685476174297721000,5.03972119140625,-0.00015707963029854,-0.00043633230961859226,-0.0008028514566831291
1685476174317721000,5.05972119140625,-0.0006981316837482154,0.0004886921960860491,0.0006981316837482154
1685476174337721000,5.07972119140625,-0.00020943951676599681,-0.00010471975838299841,-0.00003490658491500653
1685476174357722600,5.09972265625,-0.00031415926059708,0.00020943951676599681,-0.000052359879191499203
1685476174377721000,5.11972119140625,0.00029670598451048136,0.00040142572834156454,0
1685476174397721000,5.13972119140625,0.00040142572834156454,0.00008726646046852693,-0.00020943951676599681
1685476174417721000,5.15972119140625,0.0006632251315750182,0.00047123889089562,-0.0006981316837482154
1685476174437721000,5.17972119140625,0.0005235987482592463,-0.00012217304902151227,-0.00015707963029854
1685476174457721000,5.19972119140625,-0.00040142572834156454,-0.0007504915702156723,-0.00047123889089562
1685476174477721000,5.21972119140625,-0.00013962633966002613,0,0
1685476174497721000,5.23972119140625,-0.00012217304902151227,-0.00031415926059708,-0.00003490658491500653
1685476174517721000,5.25972119140625,-0.00010471975838299841,-0.0005410520825535059,-0.00043633230961859226
1685476174537721000,5.27972119140625,0.00019198621157556772,0.00010471975838299841,0.0003316125657875091
1685476174557721000,5.29972119140625,0.00029670598451048136,-0.0009599310578778386,0.00010471975838299841
1685476174577721000,5.31972119140625,0.0007504915702156723,-0.0009075712296180427,-0.00006981316983001307
1685476174597721000,5.33972119140625,0.0003316125657875091,0.000052359879191499203,0.0006457717972807586
1685476174617721000,5.35972119140625,0.0002617993741296232,0.000052359879191499203,0.0005934119690209627
1685476174637721000,5.37972119140625,-0.00003490658491500653,0,0.0011868239380419254
1685476174657721000,5.39972119140625,0.00031415926059708,-0.00012217304902151227,-0.00013962633966002613
1685476174677721000,5.41972119140625,-0.00015707963029854,-0.00062831852119416,-0.0008901178953237832
1685476174697721000,5.43972119140625,-0.0004886921960860491,-0.000052359879191499203,0.000052359879191499203
1685476174717721000,5.45972119140625,0.00029670598451048136,-0.00010471975838299841,0.00022689280740451068
1685476174737721000,5.47972119140625,-0.0009250245057046413,0.0005061454721726477,-0.0003490658418741077
1685476174757721000,5.49972119140625,0.0004886921960860491,0.000017453292457503267,-0.001029744278639555
1685476174777721000,5.51972119140625,-0.0005235987482592463,0.00012217304902151227,-0.00008726646046852693
1685476174797721000,5.53972119140625,0.00015707963029854,0.0006457717972807586,-0.00003490658491500653
1685476174817721000,5.55972119140625,-0.00006981316983001307,-0.00038397242315113544,-0.0005585053586401045
1685476174837721000,5.57972119140625,0.00017453292093705386,-0.00040142572834156454,-0.00010471975838299841
1685476174857721000,5.59972119140625,-0.00029670598451048136,-0.0006108652451075613,-0.00006981316983001307
1685476174877721000,5.61972119140625,0.0008028514566831291,-0.00017453292093705386,0.0006108652451075613
1685476174897721000,5.63972119140625,0.00024434609804302454,-0.0005759586347267032,0.0008028514566831291
1685476174917721000,5.65972119140625,-0.0005410520825535059,-0.0005235987482592463,0.000017453292457503267
1685476174937721000,5.67972119140625,0.00003490658491500653,0,-0.0005410520825535059
1685476174957721000,5.69972119140625,0.00022689280740451068,0.000052359879191499203,-0.00062831852119416
1685476174977721000,5.71972119140625,0.000017453292457503267,0.0016231562476605177,0.00022689280740451068
1685476174997721000,5.73972119140625,-0.0004886921960860491,-0.0008726646192371845,-0.0003316125657875091
1685476175017721000,5.75972119140625,-0.0012217304902151227,0.00006981316983001307,-0.0004886921960860491
1685476175037721000,5.77972119140625,-0.0007330382941290736,-0.000052359879191499203,-0.00027925267932005227
1685476175057721000,5.79972119140625,-0.00024434609804302454,0.00029670598451048136,-0.0005934119690209627
1685476175077721000,5.81972119140625,0.00015707963029854,-0.000052359879191499203,-0.0006457717972807586
1685476175097721000,5.83972119140625,0.00020943951676599681,-0.00012217304902151227,0.00031415926059708
1685476175117722600,5.85972265625,-0.001117010717280209,0.00043633230961859226,-0.0005061454721726477
1685476175137721000,5.87972119140625,-0.001029744278639555,-0.00125663704238832,-0.0011344640515744686
1685476175157721000,5.89972119140625,0.00012217304902151227,-0.001745329238474369,-0.0014137167017906904
1685476175177721000,5.91972119140625,0.00031415926059708,-0.00041887903353199363,-0.00006981316983001307
1685476175197721000,5.93972119140625,0.00006981316983001307,-0.00045378561480902135,-0.00024434609804302454
1685476175217721000,5.95972119140625,-0.000052359879191499203,-0.00024434609804302454,-0.00027925267932005227
1685476175237721000,5.97972119140625,-0.000017453292457503267,-0.00041887903353199363,-0.00020943951676599681
1685476175257721000,5.99972119140625,0.00031415926059708,-0.0005934119690209627,-0.00047123889089562
1685476175277721000,6.01972119140625,-0.0009948377264663577,-0.0012217304902151227,-0.0012915435945615172
1685476175297721000,6.03972119140625,0,0.0004886921960860491,0.00040142572834156454
1685476175317721000,6.05972119140625,0.00041887903353199363,0.00038397242315113544,0
1685476175337721000,6.07972119140625,-0.0008028514566831291,-0.001029744278639555,-0.0006457717972807586
1685476175357721000,6.09972119140625,0.00013962633966002613,0.00038397242315113544,0.00041887903353199363
1685476175377722600,6.11972265625,0.00020943951676599681,-0.0005061454721726477,-0.0003665191470645368
1685476175397721000,6.13972119140625,-0.0006108652451075613,0,-0.0006108652451075613
1685476175417721000,6.15972119140625,-0.00003490658491500653,0.0007330382941290736,-0.00008726646046852693
1685476175437721000,6.17972119140625,-0.0007330382941290736,0.000052359879191499203,-0.00017453292093705386
1685476175457722600,6.19972265625,-0.0009075712296180427,0.00029670598451048136,-0.00031415926059708
1685476175477721000,6.21972119140625,-0.00038397242315113544,0.0009250245057046413,-0.0005759586347267032
1685476175497721000,6.23972119140625,-0.00010471975838299841,-0.00017453292093705386,0.0009075712296180427
1685476175517721000,6.25972119140625,-0.00015707963029854,-0.00006981316983001307,-0.00019198621157556772
1685476175537721000,6.27972119140625,0.00038397242315113544,0.000715585018042475,0.0013788101496174932
1685476175557721000,6.29972119140625,-0.0008377580670639873,0.0002617993741296232,0.00012217304902151227
1685476175577721000,6.31972119140625,0.00031415926059708,0.00031415926059708,0
1685476175597721000,6.33972119140625,-0.00020943951676599681,-0.0003665191470645368,0.0005585053586401045
1685476175617721000,6.35972119140625,0.00008726646046852693,-0.00045378561480902135,0.0006108652451075613
1685476175637721000,6.37972119140625,0.0005585053586401045,0.00041887903353199363,-0.0003490658418741077
1685476175657721000,6.39972119140625,0,0.00013962633966002613,-0.00047123889089562
1685476175677721000,6.41972119140625,-0.000715585018042475,0.00041887903353199363,0.00038397242315113544
1685476175697721000,6.43972119140625,-0.00013962633966002613,-0.00029670598451048136,0.00015707963029854
1685476175717721000,6.45972119140625,0.00020943951676599681,0.0002617993741296232,0.00038397242315113544
1685476175737721000,6.47972119140625,-0.00010471975838299841,-0.00010471975838299841,-0.0011868239380419254
1685476175757721000,6.49972119140625,-0.00013962633966002613,-0.000017453292457503267,0.00038397242315113544
1685476175777721000,6.51972119140625,0.0002617993741296232,-0.00045378561480902135,-0.0013089969288557768
1685476175797721000,6.53972119140625,0.0003490658418741077,0.00062831852119416,-0.00012217304902151227
1685476175817721000,6.55972119140625,-0.000017453292457503267,-0.00031415926059708,0.00024434609804302454
1685476175837721000,6.57972119140625,-0.00017453292093705386,-0.0003316125657875091,-0.0004886921960860491
1685476175857721000,6.59972119140625,-0.00040142572834156454,0.0007679448463022709,-0.00003490658491500653
1685476175877721000,6.61972119140625,-0.00040142572834156454,0.0003665191470645368,0.0003665191470645368
1685476175897721000,6.63972119140625,0.00003490658491500653,-0.0010122909443452954,-0.00038397242315113544
1685476175917721000,6.65972119140625,0.000017453292457503267,-0.0003665191470645368,-0.0006457717972807586
1685476175937721000,6.67972119140625,0.00015707963029854,-0.0004886921960860491,-0.0013613568153232336
1685476175957721000,6.69972119140625,0.00029670598451048136,-0.000052359879191499203,-0.0008028514566831291
1685476175977721000,6.71972119140625,0.00003490658491500653,0.00038397242315113544,0.0005585053586401045
1685476175997721000,6.73972119140625,-0.00013962633966002613,-0.00008726646046852693,0.00017453292093705386
1685476176017721000,6.75972119140625,-0.00019198621157556772,0.0004886921960860491,-0.0006981316837482154
1685476176037721000,6.77972119140625,0.0002617993741296232,0.0004886921960860491,0.0006632251315750182
1685476176057721000,6.79972119140625,0.0005585053586401045,-0.0013089969288557768,-0.0006108652451075613
1685476176077721000,6.81972119140625,0.00008726646046852693,0.0002617993741296232,-0.0006806784076616168
1685476176097721000,6.83972119140625,-0.00022689280740451068,0.000715585018042475,-0.00027925267932005227
1685476176117721000,6.85972119140625,0.00024434609804302454,-0.00003490658491500653,-0.00045378561480902135
1685476176137721000,6.87972119140625,-0.00027925267932005227,-0.000715585018042475,-0.00045378561480902135
1685476176157721000,6.89972119140625,-0.000052359879191499203,-0.0005235987482592463,-0.0009599310578778386
1685476176177721000,6.91972119140625,-0.0003316125657875091,-0.0003665191470645368,0.000052359879191499203
1685476176197721000,6.93972119140625,-0.0011693706037476659,0.00010471975838299841,-0.0017976891249418259
1685476176217721000,6.95972119140625,0.00029670598451048136,0.0008028514566831291,-0.00006981316983001307
1685476176237721000,6.97972119140625,-0.00031415926059708,0.0002617993741296232,-0.00013962633966002613
1685476176257721000,6.99972119140625,-0.0013962633674964309,0.00006981316983001307,0.000017453292457503267
1685476176277721000,7.01972119140625,0.00024434609804302454,-0.00047123889089562,-0.0008901178953237832
1685476176297721000,7.03972119140625,0.00015707963029854,0.00027925267932005227,-0.0010471974965184927
1685476176317721000,7.05972119140625,-0.0005934119690209627,0.00020943951676599681,-0.00125663704238832
1685476176337721000,7.07972119140625,0.00047123889089562,-0.00038397242315113544,-0.0006457717972807586
1685476176357721000,7.09972119140625,0,-0.00003490658491500653,-0.0002617993741296232
1685476176377721000,7.11972119140625,0.00027925267932005227,0.00013962633966002613,-0.0012740903766825795
1685476176397721000,7.13972119140625,0,-0.0006806784076616168,-0.00027925267932005227
1685476176417721000,7.15972119140625,0.0002617993741296232,-0.00006981316983001307,0.0006108652451075613
1685476176437721000,7.17972119140625,-0.0008203047327697277,-0.00022689280740451068,-0.00024434609804302454
1685476176457721000,7.19972119140625,0.00015707963029854,0.00003490658491500653,0.0003665191470645368
1685476176477721000,7.21972119140625,0,0.00022689280740451068,-0.0005410520825535059
1685476176497721000,7.23972119140625,-0.00019198621157556772,0.00010471975838299841,0.00019198621157556772
1685476176517721000,7.25972119140625,0.0006108652451075613,-0.0010471974965184927,-0.0010821041651070118
1685476176537721000,7.27972119140625,-0.0008552113431505859,0,-0.0013613568153232336
1685476176557721000,7.29972119140625,-0.0006457717972807586,-0.0009773843921720982,-0.0012042771559208632
1685476176577721000,7.31972119140625,0.00010471975838299841,-0.0005061454721726477,-0.0002617993741296232
1685476176597721000,7.33972119140625,0.00024434609804302454,0.00031415926059708,-0.0005410520825535059
1685476176617721000,7.35972119140625,-0.00013962633966002613,0.00027925267932005227,0
1685476176637721000,7.37972119140625,-0.00010471975838299841,-0.0005410520825535059,-0.0006457717972807586
1685476176657721000,7.39972119140625,0.00013962633966002613,-0.0008726646192371845,0
1685476176677721000,7.41972119140625,-0.00024434609804302454,-0.00047123889089562,0.000052359879191499203
1685476176697721000,7.43972119140625,-0.0003490658418741077,-0.0002617993741296232,-0.00017453292093705386
1685476176717721000,7.45972119140625,-0.0008377580670639873,0.00029670598451048136,0.00040142572834156454
1685476176737721000,7.47972119140625,0.00031415926059708,-0.0006632251315750182,-0.00043633230961859226
1685476176757721000,7.49972119140625,-0.00045378561480902135,-0.00027925267932005227,0.0009599310578778386
1685476176777721000,7.51972119140625,0.000017453292457503267,0.0004886921960860491,0.0009250245057046413
1685476176797721000,7.53972119140625,0.00020943951676599681,-0.00013962633966002613,0.00012217304902151227
1685476176817721000,7.55972119140625,-0.00008726646046852693,0.00027925267932005227,0.00008726646046852693
1685476176837721000,7.57972119140625,0.000017453292457503267,-0.0008028514566831291,0.0008203047327697277
1685476176857721000,7.59972119140625,-0.00041887903353199363,0.0003490658418741077,0.00003490658491500653
1685476176877721000,7.61972119140625,0.00027925267932005227,0,-0.00038397242315113544
1685476176897721000,7.63972119140625,0.00019198621157556772,0.0007504915702156723,-0.00015707963029854
1685476176917721000,7.65972119140625,0,-0.0008726646192371845,-0.0009250245057046413
1685476176937721000,7.67972119140625,-0.00008726646046852693,0.00038397242315113544,-0.00003490658491500653
1685476176957721000,7.69972119140625,-0.00040142572834156454,-0.00012217304902151227,0
1685476176977721000,7.71972119140625,0.0003490658418741077,0.0005410520825535059,0.0003665191470645368
1685476176997721000,7.73972119140625,0.00008726646046852693,0.0002617993741296232,-0.0002617993741296232
1685476177017721000,7.75972119140625,0.0003316125657875091,0.0003665191470645368,0.00006981316983001307
1685476177037721000,7.77972119140625,-0.00017453292093705386,-0.00041887903353199363,-0.0005410520825535059
1685476177057721000,7.79972119140625,0.0003316125657875091,-0.00015707963029854,0.0008028514566831291
1685476177077721000,7.81972119140625,0.000052359879191499203,0.0014660765882581472,-0.00013962633966002613
1685476177097721000,7.83972119140625,0.00006981316983001307,-0.00038397242315113544,-0.0006108652451075613
1685476177117722600,7.85972265625,-0.0002617993741296232,-0.0006108652451075613,-0.0010471974965184927
1685476177137721000,7.87972119140625,0.00010471975838299841,-0.00031415926059708,0.0007330382941290736
1685476177157721000,7.89972119140625,-0.00017453292093705386,-0.000017453292457503267,0.0011344640515744686
1685476177177721000,7.91972119140625,0.0003490658418741077,-0.00038397242315113544,-0.0002617993741296232
1685476177197721000,7.93972119140625,0,-0.00031415926059708,-0.0002617993741296232
1685476177217721000,7.95972119140625,0,0.00017453292093705386,0.00027925267932005227
1685476177237721000,7.97972119140625,-0.00012217304902151227,0.00041887903353199363,-0.000052359879191499203
1685476177257721000,7.99972119140625,0.00022689280740451068,-0.000017453292457503267,0.00015707963029854
1685476177277721000,8.01972119140625,-0.00012217304902151227,0.0003316125657875091,-0.00029670598451048136
1685476177297721000,8.03972119140625,-0.00040142572834156454,0.0003490658418741077,-0.0007853981805965304
1685476177317721000,8.05972119140625,-0.00019198621157556772,-0.0008377580670639873,-0.0005585053586401045
1685476177337721000,8.07972119140625,0.0003490658418741077,-0.00029670598451048136,-0.00031415926059708
1685476177357721000,8.09972119140625,0.00012217304902151227,-0.00013962633966002613,-0.0004886921960860491
1685476177377721000,8.11972119140625,-0.00006981316983001307,0.0005585053586401045,-0.0015009831404313445
1685476177397721000,8.13972119140625,0.00031415926059708,0,-0.0003316125657875091
1685476177417721000,8.15972119140625,0.0009599310578778386,0.000052359879191499203,0.00008726646046852693
1685476177437721000,8.17972119140625,0.0006108652451075613,-0.0006108652451075613,-0.00010471975838299841
1685476177457721000,8.19972119140625,-0.00012217304902151227,-0.00038397242315113544,-0.00013962633966002613
1685476177477721000,8.21972119140625,0.00010471975838299841,-0.00031415926059708,-0.0003316125657875091
1685476177497721000,8.23972119140625,-0.0003490658418741077,0.0006108652451075613,-0.00010471975838299841
1685476177517721000,8.25972119140625,0.000017453292457503267,0.0010646508308127522,0.0004886921960860491
1685476177537721000,8.27972119140625,0.00006981316983001307,-0.00006981316983001307,0.00003490658491500653
1685476177557721000,8.29972119140625,-0.00017453292093705386,0,-0.00015707963029854
1685476177577721000,8.31972119140625,-0.00006981316983001307,0.00024434609804302454,-0.00031415926059708
1685476177597721000,8.33972119140625,0.0003316125657875091,-0.0005410520825535059,-0.00024434609804302454
1685476177617721000,8.35972119140625,-0.00038397242315113544,-0.00031415926059708,0.00010471975838299841
1685476177637721000,8.37972119140625,0.00012217304902151227,-0.0009075712296180427,0.00013962633966002613
1685476177657721000,8.39972119140625,0.0003316125657875091,0.001029744278639555,0.0005759586347267032
1685476177677721000,8.41972119140625,0.0003316125657875091,-0.0005235987482592463,0.00003490658491500653
1685476177697721000,8.43972119140625,-0.00024434609804302454,-0.00022689280740451068,0.00040142572834156454
1685476177717721000,8.45972119140625,-0.0003316125657875091,0.00022689280740451068,-0.00047123889089562
1685476177737721000,8.47972119140625,0.0007330382941290736,-0.0008377580670639873,-0.00047123889089562
1685476177757721000,8.49972119140625,-0.00040142572834156454,0.00027925267932005227,0.0008552113431505859
1685476177777721000,8.51972119140625,-0.0002617993741296232,-0.0005759586347267032,-0.00020943951676599681
1685476177797721000,8.53972119140625,0.0005759586347267032,-0.00012217304902151227,-0.00015707963029854
1685476177817721000,8.55972119140625,0.000052359879191499203,0.00006981316983001307,0.0015707963611930609
1685476177837721000,8.57972119140625,-0.00015707963029854,0,-0.00020943951676599681
1685476177857721000,8.59972119140625,0.00024434609804302454,-0.00010471975838299841,-0.00008726646046852693
1685476177877721000,8.61972119140625,-0.000052359879191499203,-0.00043633230961859226,-0.0010122909443452954
1685476177897721000,8.63972119140625,-0.000052359879191499203,-0.00006981316983001307,0.00017453292093705386
1685476177917721000,8.65972119140625,-0.0005759586347267032,-0.00010471975838299841,-0.0006108652451075613
1685476177937721000,8.67972119140625,-0.00024434609804302454,0.00012217304902151227,-0.00012217304902151227
1685476177957721000,8.69972119140625,0.0003316125657875091,0.00006981316983001307,0.0002617993741296232
1685476177977721000,8.71972119140625,0.00031415926059708,0.00041887903353199363,-0.0003665191470645368
1685476177997721000,8.73972119140625,-0.0005759586347267032,0.0007853981805965304,-0.00029670598451048136
1685476178017721000,8.75972119140625,0.0003316125657875091,0.001117010717280209,0.001029744278639555
1685476178037721000,8.77972119140625,-0.0007330382941290736,0.0004886921960860491,-0.0010122909443452954
1685476178057721000,8.79972119140625,-0.0008726646192371845,0.00017453292093705386,-0.0002617993741296232
1685476178077721000,8.81972119140625,-0.00022689280740451068,-0.00038397242315113544,0.00045378561480902135
1685476178097721000,8.83972119140625,-0.00019198621157556772,-0.00029670598451048136,-0.00019198621157556772
1685476178117721000,8.85972119140625,-0.00012217304902151227,0.0004886921960860491,0.00022689280740451068
1685476178137721000,8.87972119140625,0.00010471975838299841,-0.00013962633966002613,0.0006457717972807586
1685476178157721000,8.89972119140625,0.0005585053586401045,0.0003490658418741077,-0.00003490658491500653
1685476178177721000,8.91972119140625,-0.00015707963029854,0.0005061454721726477,-0.0003665191470645368
1685476178197721000,8.93972119140625,0.00029670598451048136,0.0005410520825535059,-0.0003665191470645368
1685476178217721000,8.95972119140625,-0.00015707963029854,0.00031415926059708,-0.0006457717972807586
1685476178237721000,8.97972119140625,-0.00029670598451048136,-0.001972222002223134,-0.0012915435945615172
1685476178257721000,8.99972119140625,0.00008726646046852693,0.0005061454721726477,-0.0015707963611930609
1685476178277721000,9.01972119140625,0.00015707963029854,-0.00017453292093705386,-0.00012217304902151227
1685476178297721000,9.03972119140625,0.00029670598451048136,0.00020943951676599681,0.00038397242315113544
1685476178317721000,9.05972119140625,-0.00013962633966002613,-0.00006981316983001307,-0.0003316125657875091
1685476178337721000,9.07972119140625,0.000017453292457503267,-0.0012391837080940604,-0.0003665191470645368
1685476178357721000,9.09972119140625,-0.00019198621157556772,-0.00019198621157556772,-0.0003665191470645368
1685476178377721000,9.11972119140625,0.0005759586347267032,-0.00010471975838299841,0.00047123889089562
1685476178397721000,9.13972119140625,0.00010471975838299841,0.0010122909443452954,0.000052359879191499203
1685476178417721000,9.15972119140625,-0.0007504915702156723,-0.0005759586347267032,-0.0007679448463022709
1685476178437721000,9.17972119140625,0.00006981316983001307,-0.00031415926059708,0.0003490658418741077
1685476178457721000,9.19972119140625,-0.0002617993741296232,-0.0005410520825535059,-0.00043633230961859226
1685476178477721000,9.21972119140625,0.0005585053586401045,-0.00047123889089562,-0.0010122909443452954
1685476178497721000,9.23972119140625,-0.00019198621157556772,-0.00027925267932005227,-0.0014660765882581472
1685476178517721000,9.25972119140625,-0.00003490658491500653,-0.00006981316983001307,-0.00020943951676599681
1685476178537721000,9.27972119140625,-0.0011693706037476659,-0.00003490658491500653,-0.00024434609804302454
1685476178557721000,9.29972119140625,-0.00024434609804302454,-0.0008552113431505859,0.00006981316983001307
1685476178577721000,9.31972119140625,0.00027925267932005227,-0.0005585053586401045,-0.0004886921960860491
1685476178597721000,9.33972119140625,-0.00006981316983001307,-0.0010471974965184927,-0.0006806784076616168
1685476178617721000,9.35972119140625,-0.0011868239380419254,-0.0005410520825535059,-0.0002617993741296232
1685476178637721000,9.37972119140625,-0.00019198621157556772,-0.0003665191470645368,-0.0006108652451075613
1685476178657721000,9.39972119140625,-0.0005934119690209627,-0.00062831852119416,-0.00031415926059708
1685476178677721000,9.41972119140625,0.00029670598451048136,-0.00062831852119416,-0.0011344640515744686
1685476178697721000,9.43972119140625,-0.0005585053586401045,-0.00024434609804302454,-0.0005585053586401045
1685476178717721000,9.45972119140625,0.00031415926059708,-0.00008726646046852693,0.0002617993741296232
1685476178737721000,9.47972119140625,-0.00031415926059708,0.0005934119690209627,0.00045378561480902135
1685476178757721000,9.49972119140625,0.0003316125657875091,-0.0009250245057046413,-0.0009599310578778386
1685476178777721000,9.51972119140625,-0.00038397242315113544,-0.0003316125657875091,-0.0012391837080940604
1685476178797721000,9.53972119140625,0.0008726646192371845,0.0009075712296180427,-0.0010821041651070118
1685476178817721000,9.55972119140625,0.00006981316983001307,0.0003665191470645368,-0.00010471975838299841
1685476178837721000,9.57972119140625,0.00019198621157556772,0.00019198621157556772,-0.000052359879191499203
1685476178857721000,9.59972119140625,-0.000017453292457503267,-0.00015707963029854,0.000017453292457503267
1685476178877721000,9.61972119140625,0.0002617993741296232,0.00020943951676599681,-0.0004886921960860491
1685476178897721000,9.63972119140625,-0.00003490658491500653,-0.00031415926059708,-0.0008726646192371845
1685476178917721000,9.65972119140625,-0.00015707963029854,-0.0009075712296180427,-0.0016406094655394554
1685476178937721000,9.67972119140625,0.00031415926059708,-0.00019198621157556772,-0.0007679448463022709
1685476178957721000,9.69972119140625,-0.0006981316837482154,0.0005410520825535059,-0.0007679448463022709
1685476178977721000,9.71972119140625,0,-0.0014660765882581472,-0.0025307273026555777
1685476178997721000,9.73972119140625,-0.0003490658418741077,-0.00038397242315113544,-0.00125663704238832
1685476179017721000,9.75972119140625,0.00027925267932005227,0.0009599310578778386,0.0010471974965184927
1685476179037721000,9.77972119140625,0.00012217304902151227,0.00013962633966002613,-0.00013962633966002613
1685476179057721000,9.79972119140625,-0.000052359879191499203,-0.00038397242315113544,-0.00045378561480902135
1685476179077721000,9.81972119140625,0.00010471975838299841,-0.00017453292093705386,-0.000017453292457503267
1685476179097721000,9.83972119140625,-0.00062831852119416,-0.00015707963029854,-0.0011693706037476659
1685476179117721000,9.85972119140625,0.00027925267932005227,-0.0007853981805965304,-0.00094247778179124
1685476179137721000,9.87972119140625,0.000052359879191499203,-0.000017453292457503267,-0.0005061454721726477
1685476179157721000,9.89972119140625,0,0.00019198621157556772,-0.00017453292093705386
1685476179177721000,9.91972119140625,0.00010471975838299841,0.00013962633966002613,-0.0009948377264663577
1685476179197721000,9.93972119140625,0.0010122909443452954,0.0005061454721726477,0.00006981316983001307
1685476179217721000,9.95972119140625,0.0003316125657875091,-0.00022689280740451068,-0.000715585018042475
1685476179237721000,9.97972119140625,0.00031415926059708,-0.00012217304902151227,0.00010471975838299841
1685476179257721000,9.99972119140625,0.0003316125657875091,0.0005934119690209627,0.0006806784076616168
1685476179277721000,10.01972119140625,-0.0006806784076616168,0.0003490658418741077,-0.0006108652451075613
1685476179297721000,10.03972119140625,-0.00027925267932005227,0.0012915435945615172,0.00047123889089562
1685476179317721000,10.05972119140625,-0.00027925267932005227,0,0.00020943951676599681
1685476179337721000,10.07972119140625,-0.0005585053586401045,-0.001483529806137085,0
1685476179357721000,10.09972119140625,-0.00062831852119416,0.00020943951676599681,0.00027925267932005227
1685476179377722600,10.11972265625,0.0005235987482592463,-0.00024434609804302454,-0.0005410520825535059
1685476179397722600,10.13972265625,0.00020943951676599681,-0.00012217304902151227,0.00012217304902151227
1685476179417722600,10.15972265625,0,-0.0003665191470645368,-0.00041887903353199363
1685476179437721000,10.17972119140625,0.0003490658418741077,0.0004886921960860491,-0.00013962633966002613
1685476179457721000,10.19972119140625,0.00031415926059708,-0.001029744278639555,-0.0003316125657875091
1685476179477721000,10.21972119140625,0,0.00017453292093705386,-0.00017453292093705386
1685476179497722600,10.23972265625,0.0003316125657875091,0.00003490658491500653,0.00047123889089562
1685476179517721000,10.25972119140625,0.00027925267932005227,-0.0003665191470645368,-0.00013962633966002613
1685476179537721000,10.27972119140625,0.00022689280740451068,0.00006981316983001307,-0.00008726646046852693
1685476179557721000,10.29972119140625,-0.0007504915702156723,-0.0007330382941290736,-0.00020943951676599681
1685476179577721000,10.31972119140625,0.00040142572834156454,0.00024434609804302454,-0.00013962633966002613
1685476179597721000,10.33972119140625,0.0003490658418741077,-0.00040142572834156454,-0.00022689280740451068
1685476179617721000,10.35972119140625,0.00031415926059708,0.0009773843921720982,0.0005585053586401045
1685476179637721000,10.37972119140625,0.0003665191470645368,0,-0.00003490658491500653
1685476179657721000,10.39972119140625,-0.00022689280740451068,0.00043633230961859226,-0.00062831852119416
1685476179677721000,10.41972119140625,0.00022689280740451068,-0.00031415926059708,-0.00031415926059708
1685476179697721000,10.43972119140625,0.0004886921960860491,-0.0003316125657875091,-0.0012740903766825795
1685476179717721000,10.45972119140625,0.00013962633966002613,-0.0003490658418741077,0.00010471975838299841
1685476179737721000,10.47972119140625,0.00031415926059708,0.0003316125657875091,0.0016057029133662581
1685476179757721000,10.49972119140625,-0.00020943951676599681,0.0005235987482592463,0.0004886921960860491
1685476179777721000,10.51972119140625,0.0003665191470645368,0.00031415926059708,-0.0005934119690209627
1685476179797721000,10.53972119140625,-0.0003490658418741077,-0.0003490658418741077,-0.00041887903353199363
1685476179817721000,10.55972119140625,0.0005934119690209627,-0.0003490658418741077,-0.0003665191470645368
1685476179837721000,10.57972119140625,0.00012217304902151227,-0.0003316125657875091,0.0009075712296180427
1685476179857721000,10.59972119140625,0.00015707963029854,0.00024434609804302454,0.00006981316983001307
1685476179877721000,10.61972119140625,0.0003665191470645368,-0.00022689280740451068,0.0009250245057046413
1685476179897721000,10.63972119140625,0.00040142572834156454,-0.0003490658418741077,0.00038397242315113544
1685476179917721000,10.65972119140625,-0.00013962633966002613,0.000052359879191499203,-0.00029670598451048136
1685476179937721000,10.67972119140625,0.0003665191470645368,-0.00019198621157556772,-0.00022689280740451068
1685476179957721000,10.69972119140625,-0.00012217304902151227,-0.0003316125657875091,-0.00015707963029854
1685476179977721000,10.71972119140625,0.00022689280740451068,0.000052359879191499203,0.00041887903353199363
1685476179997721000,10.73972119140625,0.0003490658418741077,-0.00013962633966002613,-0.00040142572834156454
1685476180017721000,10.75972119140625,-0.00006981316983001307,0.00020943951676599681,0.00003490658491500653
1685476180037721000,10.77972119140625,0.00006981316983001307,0.00045378561480902135,0.0003316125657875091
1685476180057721000,10.79972119140625,0.000052359879191499203,-0.00019198621157556772,-0.0006806784076616168
1685476180077721000,10.81972119140625,0.00029670598451048136,-0.00062831852119416,0.00013962633966002613
1685476180097721000,10.83972119140625,0.00013962633966002613,-0.00020943951676599681,-0.0011344640515744686
1685476180117721000,10.85972119140625,0.000052359879191499203,0.000017453292457503267,0.00020943951676599681
1685476180137722600,10.87972265625,-0.0006108652451075613,0.0016057029133662581,0.0007504915702156723
1685476180157721000,10.89972119140625,0.0003665191470645368,0.0004886921960860491,0.0006632251315750182
1685476180177721000,10.91972119140625,0.0006108652451075613,-0.0010821041651070118,0.00017453292093705386
1685476180197721000,10.93972119140625,-0.0006457717972807586,-0.00019198621157556772,-0.00041887903353199363
1685476180217721000,10.95972119140625,-0.00019198621157556772,0,0.00040142572834156454
1685476180237721000,10.97972119140625,0.0003490658418741077,-0.0013962633674964309,-0.00010471975838299841
1685476180257721000,10.99972119140625,-0.0002617993741296232,0.0005235987482592463,-0.000017453292457503267
1685476180277721000,11.01972119140625,0.0008726646192371845,-0.00062831852119416,-0.0019547687843441963
1685476180297721000,11.03972119140625,-0.00010471975838299841,0.0007679448463022709,-0.00020943951676599681
1685476180317721000,11.05972119140625,0.0008203047327697277,0.0003665191470645368,-0.00027925267932005227
1685476180337721000,11.07972119140625,0.00003490658491500653,-0.00019198621157556772,-0.0013962633674964309
1685476180357721000,11.09972119140625,-0.0006806784076616168,0.00012217304902151227,0.0005235987482592463
1685476180377721000,11.11972119140625,0.00024434609804302454,0.0005235987482592463,-0.0003316125657875091
1685476180397722600,11.13972265625,0.0006806784076616168,-0.00013962633966002613,-0.00015707963029854
1685476180417721000,11.15972119140625,0.00010471975838299841,0.0002617993741296232,-0.0006981316837482154
1685476180437721000,11.17972119140625,0.00041887903353199363,0.00027925267932005227,-0.0005061454721726477
1685476180457722600,11.19972265625,0.0003490658418741077,0.00094247778179124,0.0019373154500499368
1685476180477721000,11.21972119140625,-0.00040142572834156454,-0.00043633230961859226,-0.0009075712296180427
1685476180497721000,11.23972119140625,-0.0005934119690209627,0.00043633230961859226,0.00062831852119416
1685476180517721000,11.25972119140625,0.00029670598451048136,-0.00022689280740451068,-0.00125663704238832
1685476180537721000,11.27972119140625,-0.00015707963029854,-0.0005759586347267032,-0.0002617993741296232
1685476180557721000,11.29972119140625,-0.0007679448463022709,0.00040142572834156454,0.0005585053586401045
1685476180577721000,11.31972119140625,-0.00020943951676599681,-0.00045378561480902135,-0.0006632251315750182
1685476180597721000,11.33972119140625,-0.00012217304902151227,-0.0005410520825535059,-0.00010471975838299841
1685476180617721000,11.35972119140625,-0.00024434609804302454,0.0012042771559208632,0.000715585018042475
1685476180637721000,11.37972119140625,-0.00010471975838299841,0.0003665191470645368,-0.0004886921960860491
1685476180657721000,11.39972119140625,0.00020943951676599681,-0.00027925267932005227,-0.0008028514566831291
1685476180677721000,11.41972119140625,0.0003490658418741077,0.00040142572834156454,0.0003490658418741077
1685476180697721000,11.43972119140625,-0.00029670598451048136,-0.0005235987482592463,-0.0005934119690209627
1685476180717721000,11.45972119140625,0.00008726646046852693,0.00022689280740451068,-0.00041887903353199363
1685476180737721000,11.47972119140625,0.0003316125657875091,-0.0008028514566831291,-0.00047123889089562
1685476180757721000,11.49972119140625,0.00003490658491500653,-0.00006981316983001307,0.00003490658491500653
1685476180777721000,11.51972119140625,0.00022689280740451068,-0.00040142572834156454,-0.00029670598451048136
1685476180797721000,11.53972119140625,0.00012217304902151227,-0.00010471975838299841,-0.001029744278639555
1685476180817721000,11.55972119140625,0.00040142572834156454,-0.00010471975838299841,0.00024434609804302454
1685476180837721000,11.57972119140625,-0.000052359879191499203,-0.00062831852119416,-0.0015358896926045418
1685476180857721000,11.59972119140625,0.00047123889089562,-0.00029670598451048136,0
1685476180877721000,11.61972119140625,0.00024434609804302454,-0.00027925267932005227,0.00043633230961859226
1685476180897721000,11.63972119140625,-0.0007330382941290736,-0.0003665191470645368,0.00006981316983001307
1685476180917722600,11.65972265625,-0.000017453292457503267,0.0010821041651070118,0.0015358896926045418
1685476180937721000,11.67972119140625,0.000052359879191499203,-0.0009948377264663577,-0.00003490658491500653
1685476180957721000,11.69972119140625,0.0009250245057046413,0.0009075712296180427,0.0008377580670639873
1685476180977721000,11.71972119140625,-0.00015707963029854,-0.0004886921960860491,0.0002617993741296232
1685476180997721000,11.73972119140625,0.00020943951676599681,-0.0018151424592360854,-0.00031415926059708
1685476181017721000,11.75972119140625,0.0002617993741296232,-0.00094247778179124,-0.000017453292457503267
1685476181037721000,11.77972119140625,0.00029670598451048136,-0.0006806784076616168,0.00008726646046852693
1685476181057721000,11.79972119140625,0.0003316125657875091,0,-0.00038397242315113544
1685476181077721000,11.81972119140625,0.0007330382941290736,-0.0005061454721726477,-0.0006981316837482154
1685476181097721000,11.83972119140625,-0.00029670598451048136,-0.00010471975838299841,-0.00027925267932005227
1685476181117721000,11.85972119140625,0.0006457717972807586,0.0005410520825535059,0.00020943951676599681
1685476181137721000,11.87972119140625,0.00010471975838299841,0.00038397242315113544,-0.00038397242315113544
1685476181157721000,11.89972119140625,-0.0009948377264663577,-0.00043633230961859226,-0.00020943951676599681
1685476181177721000,11.91972119140625,-0.00006981316983001307,-0.0008726646192371845,-0.00038397242315113544
1685476181197721000,11.93972119140625,-0.00041887903353199363,-0.00010471975838299841,-0.00012217304902151227
1685476181217721000,11.95972119140625,0.000052359879191499203,-0.00015707963029854,-0.0013613568153232336
1685476181237721000,11.97972119140625,-0.000017453292457503267,0.0008901178953237832,-0.00040142572834156454
1685476181257721000,11.99972119140625,0.0007504915702156723,-0.0006632251315750182,-0.0005410520825535059
1685476181277721000,12.01972119140625,-0.00022689280740451068,0.0005585053586401045,-0.00062831852119416
1685476181297721000,12.03972119140625,0.0003316125657875091,0.00003490658491500653,0.0005585053586401045
1685476181317721000,12.05972119140625,0.000052359879191499203,0.0008203047327697277,0.0008203047327697277
1685476181337721000,12.07972119140625,-0.0006806784076616168,0.00020943951676599681,0.0006108652451075613
1685476181357721000,12.09972119140625,-0.0007853981805965304,0.0013788101496174932,0.00022689280740451068
1685476181377721000,12.11972119140625,-0.0003316125657875091,0.00041887903353199363,0.0006981316837482154
1685476181397721000,12.13972119140625,0.0003490658418741077,-0.0003665191470645368,0.000017453292457503267
1685476181417721000,12.15972119140625,0.0003316125657875091,-0.00010471975838299841,-0.00010471975838299841
1685476181437721000,12.17972119140625,0.000052359879191499203,-0.00008726646046852693,-0.0003665191470645368
1685476181457721000,12.19972119140625,0.00031415926059708,0.00040142572834156454,0.00008726646046852693
1685476181477721000,12.21972119140625,-0.00013962633966002613,0.001029744278639555,0.0005759586347267032
1685476181497721000,12.23972119140625,0.000017453292457503267,-0.0008377580670639873,-0.0008901178953237832
1685476181517721000,12.25972119140625,0.00013962633966002613,-0.000017453292457503267,0.0005759586347267032
1685476181537721000,12.27972119140625,-0.00047123889089562,-0.001343903481028974,-0.0005585053586401045
1685476181557721000,12.29972119140625,0.00043633230961859226,0.00013962633966002613,0.000017453292457503267
1685476181577721000,12.31972119140625,-0.0012391837080940604,-0.0005410520825535059,-0.0012042771559208632
1685476181597721000,12.33972119140625,0.00024434609804302454,0.00022689280740451068,-0.0002617993741296232
1685476181617721000,12.35972119140625,0.000052359879191499203,0.00027925267932005227,0.0008377580670639873
1685476181637721000,12.37972119140625,0.00017453292093705386,0.00029670598451048136,-0.00024434609804302454
1685476181657721000,12.39972119140625,-0.00019198621157556772,-0.0005585053586401045,0.00012217304902151227
1685476181677721000,12.41972119140625,0.0008203047327697277,-0.000052359879191499203,0.00012217304902151227
1685476181697721000,12.43972119140625,0,0.0008028514566831291,-0.00017453292093705386
1685476181717721000,12.45972119140625,-0.00038397242315113544,0.0010995573829859495,0.0009599310578778386
1685476181737721000,12.47972119140625,0.00027925267932005227,-0.0007330382941290736,-0.0008377580670639873
1685476181757721000,12.49972119140625,0.000017453292457503267,-0.0005061454721726477,0.00006981316983001307
1685476181777721000,12.51972119140625,0.00008726646046852693,-0.00062831852119416,0.000052359879191499203
1685476181797721000,12.53972119140625,-0.0004886921960860491,0.0013089969288557768,0.001343903481028974
1685476181817721000,12.55972119140625,0.00003490658491500653,0.0007330382941290736,0.0006108652451075613
1685476181837721000,12.57972119140625,-0.00047123889089562,0.0005235987482592463,-0.00008726646046852693
1685476181857721000,12.59972119140625,0.00029670598451048136,-0.00003490658491500653,0.00017453292093705386
1685476181877721000,12.61972119140625,0.0003490658418741077,0.0007679448463022709,0.0003665191470645368
1685476181897721000,12.63972119140625,0.00041887903353199363,0.00038397242315113544,-0.00031415926059708
1685476181917721000,12.65972119140625,0.0005061454721726477,0.0005410520825535059,-0.000052359879191499203
1685476181937721000,12.67972119140625,0.000052359879191499203,-0.00008726646046852693,-0.0009075712296180427
1685476181957721000,12.69972119140625,-0.000715585018042475,-0.0006108652451075613,-0.0011519172694534063
1685476181977721000,12.71972119140625,0.0006457717972807586,-0.000017453292457503267,-0.00022689280740451068
1685476181997721000,12.73972119140625,0.000052359879191499203,-0.00012217304902151227,0.00010471975838299841
1685476182017721000,12.75972119140625,-0.000052359879191499203,-0.0004886921960860491,0.00017453292093705386
1685476182037721000,12.77972119140625,-0.00008726646046852693,0.00045378561480902135,-0.00040142572834156454
1685476182057721000,12.79972119140625,0.0006632251315750182,0.00031415926059708,0.000017453292457503267
1685476182077721000,12.81972119140625,0.00020943951676599681,-0.0006457717972807586,0.00006981316983001307
1685476182097721000,12.83972119140625,-0.00003490658491500653,-0.0006981316837482154,-0.000052359879191499203
1685476182117721000,12.85972119140625,-0.00031415926059708,-0.0009773843921720982,0.0008377580670639873
1685476182137721000,12.87972119140625,0.00024434609804302454,-0.00047123889089562,-0.000052359879191499203
1685476182157721000,12.89972119140625,0.00043633230961859226,0,-0.0008901178953237832
1685476182177721000,12.91972119140625,0.00031415926059708,0.0005934119690209627,-0.00012217304902151227
1685476182197721000,12.93972119140625,0.00041887903353199363,0.0014137167017906904,-0.0003490658418741077
1685476182217721000,12.95972119140625,0.000017453292457503267,0.0006806784076616168,0.0009948377264663577
1685476182237721000,12.97972119140625,-0.0002617993741296232,0.00013962633966002613,-0.00040142572834156454
1685476182257721000,12.99972119140625,0.00003490658491500653,-0.00008726646046852693,0.0003490658418741077
1685476182277721000,13.01972119140625,0.00006981316983001307,-0.00013962633966002613,-0.00047123889089562
1685476182297721000,13.03972119140625,0.00019198621157556772,0.0003490658418741077,0.0003316125657875091
1685476182317721000,13.05972119140625,0.0009599310578778386,-0.0006108652451075613,0.00017453292093705386
1685476182337721000,13.07972119140625,0.00017453292093705386,-0.00010471975838299841,-0.00017453292093705386
1685476182357721000,13.09972119140625,0,-0.00008726646046852693,-0.001117010717280209
1685476182377721000,13.11972119140625,0.0003316125657875091,-0.0004886921960860491,-0.0011693706037476659
1685476182397721000,13.13972119140625,0.00003490658491500653,0.00006981316983001307,0.00003490658491500653
1685476182417721000,13.15972119140625,0.00029670598451048136,-0.00008726646046852693,0.00008726646046852693
1685476182437721000,13.17972119140625,0.00020943951676599681,0.00017453292093705386,0
1685476182457721000,13.19972119140625,0.00012217304902151227,-0.0009075712296180427,-0.0006457717972807586
1685476182477721000,13.21972119140625,0.00029670598451048136,0.0003490658418741077,-0.00003490658491500653
1685476182497721000,13.23972119140625,0.0005934119690209627,-0.0017278759041801095,-0.001117010717280209
1685476182517721000,13.25972119140625,-0.000052359879191499203,-0.0008726646192371845,0.00022689280740451068
1685476182537721000,13.27972119140625,-0.000052359879191499203,-0.0009599310578778386,0.00013962633966002613
1685476182557721000,13.29972119140625,-0.00003490658491500653,-0.000017453292457503267,0.0003490658418741077
1685476182577721000,13.31972119140625,0.00019198621157556772,-0.0002617993741296232,0.00015707963029854
1685476182597721000,13.33972119140625,0.0003665191470645368,-0.00024434609804302454,0.00024434609804302454
1685476182617721000,13.35972119140625,-0.0005759586347267032,-0.00038397242315113544,-0.00205948855727911
1685476182637721000,13.37972119140625,0.0003316125657875091,0.0006632251315750182,-0.00010471975838299841
1685476182657721000,13.39972119140625,0.00041887903353199363,-0.00015707963029854,0.0005585053586401045
1685476182677721000,13.41972119140625,0.00031415926059708,-0.00020943951676599681,-0.0005934119690209627
1685476182697721000,13.43972119140625,-0.00038397242315113544,-0.0007504915702156723,-0.00010471975838299841
1685476182717721000,13.45972119140625,0.0003316125657875091,0.00045378561480902135,0.00010471975838299841
1685476182737721000,13.47972119140625,0.0003316125657875091,-0.0013962633674964309,-0.00029670598451048136
1685476182757721000,13.49972119140625,-0.001029744278639555,-0.0005235987482592463,0.00045378561480902135
1685476182777721000,13.51972119140625,0.00031415926059708,-0.00019198621157556772,0
1685476182797721000,13.53972119140625,-0.0004886921960860491,-0.00038397242315113544,-0.00008726646046852693
1685476182817721000,13.55972119140625,0.00012217304902151227,0.0005410520825535059,0.0006806784076616168
1685476182837721000,13.57972119140625,0.00015707963029854,-0.000017453292457503267,0.00006981316983001307
1685476182857721000,13.59972119140625,-0.0004886921960860491,0.00019198621157556772,-0.00017453292093705386
1685476182877721000,13.61972119140625,0.00027925267932005227,0.00015707963029854,-0.0008726646192371845
1685476182897721000,13.63972119140625,-0.00006981316983001307,0.0011344640515744686,0.0008028514566831291
1685476182917721000,13.65972119140625,-0.00013962633966002613,-0.00041887903353199363,-0.00020943951676599681
1685476182937721000,13.67972119140625,-0.00062831852119416,0,0.00003490658491500653
1685476182957721000,13.69972119140625,0.00020943951676599681,-0.0002617993741296232,-0.00125663704238832
1685476182977721000,13.71972119140625,0.00010471975838299841,0.00038397242315113544,-0.0013264502631500363
1685476182997721000,13.73972119140625,-0.0008028514566831291,0.0003316125657875091,0.00022689280740451068
1685476183017721000,13.75972119140625,-0.00012217304902151227,-0.0009773843921720982,-0.0010122909443452954
1685476183037721000,13.77972119140625,0.0003665191470645368,-0.0005585053586401045,0.00010471975838299841
1685476183057721000,13.79972119140625,0.000017453292457503267,0.00017453292093705386,0.00013962633966002613
1685476183077721000,13.81972119140625,0.0003316125657875091,0.00029670598451048136,-0.00010471975838299841
1685476183097721000,13.83972119140625,0.00027925267932005227,-0.000017453292457503267,-0.000715585018042475
1685476183117721000,13.85972119140625,0.00029670598451048136,-0.00043633230961859226,0
1685476183137721000,13.87972119140625,0.00010471975838299841,0.00017453292093705386,0.00012217304902151227
1685476183157721000,13.89972119140625,0.00015707963029854,-0.00003490658491500653,0.00012217304902151227
1685476183177721000,13.91972119140625,-0.0010995573829859495,0.00019198621157556772,-0.0006632251315750182
1685476183197721000,13.93972119140625,0.00047123889089562,-0.00020943951676599681,0.00003490658491500653
1685476183217721000,13.95972119140625,-0.00012217304902151227,-0.0009948377264663577,-0.0020769417751580477
1685476183237721000,13.97972119140625,-0.00015707963029854,0,-0.0005061454721726477
1685476183257721000,13.99972119140625,0.00008726646046852693,0.00040142572834156454,0.0008901178953237832
1685476183277721000,14.01972119140625,0.000715585018042475,-0.00012217304902151227,-0.0016406094655394554
1685476183297721000,14.03972119140625,-0.00022689280740451068,0.00017453292093705386,0
1685476183317721000,14.05972119140625,-0.0008552113431505859,-0.00047123889089562,-0.0010821041651070118
1685476183337721000,14.07972119140625,-0.00008726646046852693,-0.0005235987482592463,0.00006981316983001307
1685476183357721000,14.09972119140625,0.000052359879191499203,-0.0006632251315750182,0.00045378561480902135
1685476183377721000,14.11972119140625,0.00027925267932005227,0.00029670598451048136,0.0003665191470645368
1685476183397721000,14.13972119140625,-0.00012217304902151227,0.0007504915702156723,0.00013962633966002613
1685476183417721000,14.15972119140625,-0.00040142572834156454,-0.0008203047327697277,0.00062831852119416
1685476183437721000,14.17972119140625,-0.00027925267932005227,0.00019198621157556772,0.000052359879191499203
1685476183457721000,14.19972119140625,-0.00017453292093705386,-0.0006108652451075613,0.00045378561480902135
1685476183477721000,14.21972119140625,-0.00045378561480902135,0.00041887903353199363,0.00008726646046852693
1685476183497721000,14.23972119140625,0.00006981316983001307,-0.0009948377264663577,-0.0003490658418741077
1685476183517721000,14.25972119140625,-0.00031415926059708,0.00024434609804302454,0.00022689280740451068
1685476183537721000,14.27972119140625,-0.00006981316983001307,-0.0008028514566831291,-0.0018675023457035422
1685476183557721000,14.29972119140625,0.000017453292457503267,-0.0004886921960860491,-0.0007330382941290736
1685476183577721000,14.31972119140625,0.0006108652451075613,-0.0003665191470645368,-0.00024434609804302454
1685476183597721000,14.33972119140625,0.00020943951676599681,-0.0002617993741296232,-0.000017453292457503267
1685476183617721000,14.35972119140625,0.00040142572834156454,-0.0008028514566831291,-0.0005235987482592463
1685476183637721000,14.37972119140625,0,-0.00045378561480902135,0.00043633230961859226
1685476183657721000,14.39972119140625,0.000052359879191499203,0.0007679448463022709,0.0015009831404313445
1685476183677721000,14.41972119140625,0.00020943951676599681,-0.00015707963029854,0.00013962633966002613
1685476183697721000,14.43972119140625,0.00022689280740451068,-0.0015882495790719986,-0.00003490658491500653
1685476183717721000,14.45972119140625,-0.00047123889089562,0.00040142572834156454,0.0003316125657875091
1685476183737721000,14.47972119140625,-0.00040142572834156454,-0.00019198621157556772,-0.0011693706037476659
1685476183757721000,14.49972119140625,0.0003665191470645368,0.0005410520825535059,-0.00008726646046852693
1685476183777721000,14.51972119140625,0.0003316125657875091,-0.000017453292457503267,0.00022689280740451068
1685476183797721000,14.53972119140625,0.0006632251315750182,0.00013962633966002613,-0.00045378561480902135
1685476183817721000,14.55972119140625,-0.000052359879191499203,-0.0008726646192371845,-0.0010122909443452954
1685476183837721000,14.57972119140625,0.00038397242315113544,-0.003176499158143997,-0.000052359879191499203
1685476183857721000,14.59972119140625,0.0003490658418741077,0.00017453292093705386,0.00017453292093705386
1685476183877721000,14.61972119140625,0.00022689280740451068,0.00022689280740451068,-0.0006108652451075613
1685476183897721000,14.63972119140625,-0.00010471975838299841,0.00047123889089562,0.0006806784076616168
1685476183917721000,14.65972119140625,-0.00029670598451048136,-0.00017453292093705386,-0.00003490658491500653
1685476183937721000,14.67972119140625,0.00022689280740451068,0.00038397242315113544,0.00015707963029854
1685476183957721000,14.69972119140625,0,-0.0011693706037476659,-0.00038397242315113544
1685476183977721000,14.71972119140625,0.0003316125657875091,-0.001029744278639555,-0.0012217304902151227
1685476183997721000,14.73972119140625,0.00008726646046852693,-0.0002617993741296232,0.0005934119690209627
1685476184017721000,14.75972119140625,0.00024434609804302454,-0.0002617993741296232,0.00010471975838299841
1685476184037721000,14.77972119140625,0.00031415926059708,-0.0007504915702156723,0.0004886921960860491
1685476184057721000,14.79972119140625,0.00024434609804302454,-0.000017453292457503267,0.0011519172694534063
1685476184077721000,14.81972119140625,0.000052359879191499203,0.00047123889089562,-0.00017453292093705386
1685476184097721000,14.83972119140625,-0.000715585018042475,0.000715585018042475,-0.0006981316837482154
1685476184117721000,14.85972119140625,0.000715585018042475,0.001658062799833715,-0.0005759586347267032
1685476184137721000,14.87972119140625,-0.00041887903353199363,-0.00003490658491500653,0.0007679448463022709
1685476184157721000,14.89972119140625,0.00062831852119416,0.0007330382941290736,0.00027925267932005227
1685476184177721000,14.91972119140625,0.00027925267932005227,0.00015707963029854,-0.0010821041651070118
1685476184197721000,14.93972119140625,-0.00010471975838299841,0.00012217304902151227,0.00047123889089562
1685476184217721000,14.95972119140625,0.00024434609804302454,-0.00015707963029854,0.0007330382941290736
1685476184237721000,14.97972119140625,0.00019198621157556772,-0.00062831852119416,0.00019198621157556772
1685476184257721000,14.99972119140625,-0.00038397242315113544,0.00047123889089562,-0.0003316125657875091
1685476184277721000,15.01972119140625,-0.00008726646046852693,-0.000715585018042475,-0.00012217304902151227
1685476184297721000,15.03972119140625,-0.00047123889089562,-0.0002617993741296232,-0.00022689280740451068
1685476184317721000,15.05972119140625,0.00038397242315113544,0.00010471975838299841,0.0009773843921720982
1685476184337721000,15.07972119140625,0.00020943951676599681,-0.0009948377264663577,-0.0012042771559208632
1685476184357721000,15.09972119140625,0.00047123889089562,0.00029670598451048136,0.00022689280740451068
1685476184377721000,15.11972119140625,0.00024434609804302454,-0.0008552113431505859,-0.00012217304902151227
1685476184397721000,15.13972119140625,0.000715585018042475,0.00029670598451048136,-0.00022689280740451068
1685476184417722600,15.15972265625,0.0006108652451075613,0.0005759586347267032,0.0009948377264663577
1685476184437721000,15.17972119140625,0.00012217304902151227,-0.00010471975838299841,-0.00047123889089562
1685476184457721000,15.19972119140625,0.00006981316983001307,0.0003316125657875091,0.0003490658418741077
1685476184477721000,15.21972119140625,-0.000017453292457503267,-0.00027925267932005227,0.00031415926059708
1685476184497721000,15.23972119140625,0.00010471975838299841,0.00006981316983001307,0.0008552113431505859
1685476184517721000,15.25972119140625,-0.00041887903353199363,-0.00038397242315113544,-0.0012391837080940604
1685476184537721000,15.27972119140625,0.00022689280740451068,0.0008377580670639873,0.00010471975838299841
1685476184557721000,15.29972119140625,0.0034208453726023436,-0.00022689280740451068,-0.0007853981805965304
1685476184577721000,15.31972119140625,0.18713420629501343,-0.00031415926059708,0.0011693706037476659
1685476184597721000,15.33972119140625,0.35210272669792175,0.0026529005263000727,-0.0025830871891230345
1685476184617721000,15.35972119140625,0.33478906750679016,0.0019896754529327154,-0.0028797932900488377
1685476184637721000,15.37972119140625,0.24097761511802673,0.00143117003608495,-0.00031415926059708
1685476184657721000,15.39972119140625,0.1489114910364151,0.0010471974965184927,-0.000715585018042475
1685476184677721000,15.41972119140625,0.08171631395816803,0.000017453292457503267,-0.00022689280740451068
1685476184697721000,15.43972119140625,0.08628907799720764,0.00008726646046852693,-0.00047123889089562
1685476184717721000,15.45972119140625,0.1333780586719513,0.00045378561480902135,-0.0007853981805965304
1685476184737721000,15.47972119140625,0.17027431726455688,0.0005585053586401045,-0.0005410520825535059
1685476184757721000,15.49972119140625,0.17603391408920288,-0.00015707963029854,-0.0016231562476605177
1685476184777721000,15.51972119140625,0.1713913381099701,0.0010821041651070118,-0.0008901178953237832
1685476184797721000,15.53972119140625,0.15831881761550903,0.0005235987482592463,-0.000052359879191499203
1685476184817721000,15.55972119140625,0.17404423654079437,0.00062831852119416,-0.001117010717280209
1685476184837721000,15.57972119140625,0.20905554294586182,0.0019024088978767395,-0.0005585053586401045
1685476184857721000,15.59972119140625,0.25186845660209656,0.0016057029133662581,-0.0013613568153232336
1685476184877721000,15.61972119140625,0.2802126109600067,0.002024581888690591,-0.0007853981805965304
1685476184897721000,15.63972119140625,0.2967234253883362,0.0014660765882581472,-0.001117010717280209
1685476184917721000,15.65972119140625,0.31037190556526184,0.0034208453726023436,-0.0029845130629837513
1685476184937721000,15.67972119140625,0.3274586796760559,0.0016929693520069122,-0.001745329238474369
1685476184957721000,15.69972119140625,0.3421892523765564,0.0016057029133662581,-0.002740166848525405
1685476184977721000,15.71972119140625,0.3640582263469696,0.0015882495790719986,-0.003176499158143997
1685476184997721000,15.73972119140625,0.39622464776039124,0.0017802357906475663,-0.00019198621157556772
1685476185017721000,15.75972119140625,0.4289495646953583,0.0016755161341279745,-0.0018675023457035422
1685476185037721000,15.77972119140625,0.44256314635276794,0.003926991019397974,-0.00006981316983001307
1685476185057721000,15.79972119140625,0.44434335827827454,0.002827433403581381,-0.003298672381788492
1685476185077721000,15.81972119140625,0.4449891448020935,0.005532693583518267,-0.0034208453726023436
1685476185097721000,15.83972119140625,0.43364450335502625,0.004502949304878712,-0.0023387412074953318
1685476185117721000,15.85972119140625,0.4014955461025238,0.003926991019397974,-0.0015358896926045418
1685476185137721000,15.87972119140625,0.39852848649024963,0.0018500490114092827,-0.002548180753365159
1685476185157721000,15.89972119140625,0.3834139406681061,0.0019198621157556772,-0.0005934119690209627
1685476185177722600,15.91972265625,0.40947169065475464,0.00020943951676599681,-0.0028448866214603186
1685476185197721000,15.93972119140625,0.4473627805709839,0.0019024088978767395,-0.0031241392716765404
1685476185217721000,15.95972119140625,0.4547978937625885,0.0029321531765162945,-0.0023387412074953318
1685476185237721000,15.97972119140625,0.47019168734550476,0.0026529005263000727,-0.0015882495790719986
1685476185257721000,15.99972119140625,0.474642276763916,0.00411897711455822,-0.004293509759008884
1685476185277721000,16.01972119140625,0.49584802985191345,0.003857177682220936,-0.000715585018042475
1685476185297721000,16.03972119140625,0.5121319890022278,0.0026529005263000727,-0.0026354470755904913
1685476185317721000,16.05972119140625,0.5464276671409607,0.005393067374825478,-0.002007128670811653
1685476185337721000,16.07972119140625,0.5772501826286316,0.003979350905865431,-0.002478367416188121
1685476185357721000,16.09972119140625,0.5907067060470581,0.0035604715812951326,-0.003403391921892762
1685476185377721000,16.11972119140625,0.589938759803772,0.006143558770418167,-0.0024260077625513077
1685476185397721000,16.13972119140625,0.5878443717956543,0.0024260077625513077,-0.0023911010939627886
1685476185417721000,16.15972119140625,0.6076363921165466,0.006073745898902416,-0.003944444004446268
1685476185437722600,16.17972265625,0.6166771650314331,0.006300638429820538,-0.0011693706037476659
1685476185457722600,16.19972265625,0.6453354954719543,0.008028514683246613,-0.003089232835918665
1685476185477721000,16.21972119140625,0.6647086143493652,0.0037873645778745413,-0.0051312679424881935
1685476185497722600,16.23972265625,0.693558931350708,0.005340707488358021,-0.004433136433362961
1685476185517721000,16.25972119140625,0.7154977321624756,0.0028972465079277754,-0.005550147034227848
1685476185537721000,16.27972119140625,0.7390247583389282,0.0041015236638486385,-0.0036477381363511086
1685476185557721000,16.29972119140625,0.7738265991210938,0.004817108623683453,-0.003926991019397974
1685476185577721000,16.31972119140625,0.815138578414917,0.004049163777381182,-0.005218534264713526
1685476185597721000,16.33972119140625,0.8628733158111572,0.007627088576555252,-0.005794493015855551
1685476185617721000,16.35972119140625,0.917781412601471,0.004206243436783552,-0.007400196045637131
1685476185637721000,16.37972119140625,0.9674360156059265,0.004956734832376242,-0.003298672381788492
1685476185657721000,16.39972119140625,0.9912073612213135,0.00890117883682251,-0.007120943162590265
1685476185677721000,16.41972119140625,0.9891828298568726,0.00890117883682251,-0.0066147977486252785
1685476185697721000,16.43972119140625,0.9790598750114441,0.005689773242920637,-0.0046774824149906635
1685476185717721000,16.45972119140625,0.9653066992759705,0.007138396613299847,-0.004345869645476341
1685476185737721000,16.47972119140625,0.9557597637176514,0.007173303049057722,-0.004607669077813625
1685476185757721000,16.49972119140625,0.9538573622703552,0.002809980185702443,-0.006544984877109528
1685476185777721000,16.51972119140625,0.9396852850914001,0.007731808349490166,-0.0034208453726023436
1685476185797721000,16.53972119140625,0.9186540246009827,0.007504915818572044,-0.0034382985904812813
1685476185817721000,16.55972119140625,0.900275707244873,0.00830776710063219,-0.005672320257872343
1685476185837721000,16.57972119140625,0.8745844960212708,0.006457718089222908,-0.004485496319830418
1685476185857721000,16.59972119140625,0.8482474684715271,0.008779006078839302,-0.00502654816955328
1685476185877721000,16.61972119140625,0.8127474784851074,0.00376991112716496,-0.005218534264713526
1685476185897721000,16.63972119140625,0.7945786118507385,0.005462880712002516,-0.005078908056020737
1685476185917721000,16.65972119140625,0.7606145143508911,0.005794493015855551,-0.003036872949451208
1685476185937721000,16.67972119140625,0.7367907166481018,0.0011519172694534063,-0.005986479111015797
1685476185957721000,16.69972119140625,0.7362671494483948,0.005759586580097675,-0.0036477381363511086
1685476185977721000,16.71972119140625,0.7374365329742432,0.0038920841179788113,-0.0026354470755904913
1685476185997721000,16.73972119140625,0.7275579571723938,0.005550147034227848,-0.0038746309000998735
1685476186017721000,16.75972119140625,0.7333000898361206,0.007347836159169674,-0.0031241392716765404
1685476186037721000,16.77972119140625,0.7318689227104187,0.002949606394395232,-0.00855211354792118
1685476186057721000,16.79972119140625,0.7317118048667908,0.006510077975690365,-0.005777040030807257
1685476186077721000,16.81972119140625,0.7292683720588684,0.008220500312745571,-0.003979350905865431
1685476186097721000,16.83972119140625,0.7198086977005005,0.007522369269281626,-0.003228859044611454
1685476186117721000,16.85972119140625,0.7331255674362183,0.002600540639832616,-0.004590216092765331
1685476186137721000,16.87972119140625,0.7753101587295532,0.004014257341623306,-0.002949606394395232
1685476186157721000,16.89972119140625,0.8159937858581543,0.0038222710136324167,-0.004642575979232788
1685476186177721000,16.91972119140625,0.8343721032142639,0.005602506920695305,-0.005445427261292934
1685476186197721000,16.93972119140625,0.8445822596549988,0.006126105785369873,-0.006771877408027649
1685476186217721000,16.95972119140625,0.813393235206604,0.007347836159169674,-0.005096361506730318
1685476186237721000,16.97972119140625,0.7586771845817566,0.004136430099606514,-0.004904375411570072
1685476186257721000,16.99972119140625,0.6911852955818176,0.002687806962057948,-0.0031241392716765404
1685476186277721000,17.01972119140625,0.6165899038314819,0.005462880712002516,-0.0024260077625513077
1685476186297721000,17.03972119140625,0.5961171984672546,0.0007330382941290736,-0.005986479111015797
1685476186317721000,17.05972119140625,0.5995729565620422,0.003403391921892762,-0.004084070213139057
1685476186337721000,17.07972119140625,0.6094515323638916,0.004886921960860491,-0.0028448866214603186
1685476186357721000,17.09972119140625,0.6514266729354858,0.0026179938577115536,-0.006562437862157822
1685476186377721000,17.11972119140625,0.7030360698699951,0.006824237294495106,-0.004433136433362961
1685476186397721000,17.13972119140625,0.736127495765686,0.006492624990642071,-0.003543018363416195
1685476186417721000,17.15972119140625,0.7600210905075073,0.005777040030807257,-0.0068765971809625626
1685476186437721000,17.17972119140625,0.7614871263504028,0.006579891312867403,-0.0037000980228185654
1685476186457721000,17.19972119140625,0.7548025250434875,0.007400196045637131,-0.004642575979232788
1685476186477721000,17.21972119140625,0.7520798444747925,0.0026354470755904913,-0.003403391921892762
1685476186497721000,17.23972119140625,0.7396705150604248,0.0034732052590698004,-0.006510077975690365
1685476186517721000,17.25972119140625,0.7284131646156311,0.005846852902323008,-0.0036826448049396276
1685476186537721000,17.27972119140625,0.6888465285301208,0.005846852902323008,-0.0027925267349928617
1685476186557721000,17.29972119140625,0.6667332053184509,0.004904375411570072,-0.003543018363416195
1685476186577721000,17.31972119140625,0.6672568321228027,0.002460914198309183,-0.005550147034227848
1685476186597721000,17.33972119140625,0.699248731136322,0.005113814491778612,-0.003403391921892762
1685476186617721000,17.35972119140625,0.7382218837738037,0.004398229531943798,-0.006248278543353081
1685476186637721000,17.37972119140625,0.7540171146392822,0.004206243436783552,-0.003543018363416195
1685476186657721000,17.39972119140625,0.7585899233818054,0.0057246801443398,-0.003543018363416195
1685476186677721000,17.41972119140625,0.7645763754844666,0.007208209950476885,-0.003909537568688393
1685476186697721000,17.43972119140625,0.761050820350647,0.0023387412074953318,-0.005969026125967503
1685476186717721000,17.45972119140625,0.7520099878311157,0.005462880712002516,-0.006405358202755451
1685476186737721000,17.47972119140625,0.7333698868751526,0.005497787147760391,-0.005445427261292934
1685476186757721000,17.49972119140625,0.7143981456756592,0.004694935865700245,-0.002949606394395232
1685476186777721000,17.51972119140625,0.6742206811904907,0.004345869645476341,-0.005201081279665232
1685476186797721000,17.53972119140625,0.6324549317359924,0.0017104226863011718,-0.0063355453312397
1685476186817721000,17.55972119140625,0.607130229473114,0.003455751808360219,-0.005672320257872343
1685476186837721000,17.57972119140625,0.57365483045578,-0.00003490658491500653,-0.005619960371404886
1685476186857721000,17.59972119140625,0.5210680365562439,-0.0005585053586401045,-0.00593411922454834
1685476186877721000,17.61972119140625,0.47136107087135315,0.004956734832376242,-0.001745329238474369
1685476186897721000,17.63972119140625,0.5239129066467285,0.005759586580097675,-0.0017976891249418259
1685476186917721000,17.65972119140625,0.570164144039154,0.006981316953897476,-0.0020943949930369854
1685476186937721000,17.67972119140625,0.581753134727478,0.004834562074393034,-0.0018151424592360854
1685476186957721000,17.69972119140625,0.5789605975151062,0.004817108623683453,-0.0049916417337954044
1685476186977721000,17.71972119140625,0.6040759086608887,0.0067544239573180676,-0.004136430099606514
1685476186997721000,17.73972119140625,0.6063797473907471,0.0060388389974832535,-0.0023038345389068127
1685476187017721000,17.75972119140625,0.5981417894363403,0.00457276264205575,-0.003857177682220936
1685476187037721000,17.77972119140625,0.599782407283783,0.00808087456971407,-0.0013788101496174932
1685476187057721000,17.79972119140625,0.5797285437583923,0.00518362782895565,-0.0021642083302140236
1685476187077721000,17.81972119140625,0.5699546933174133,0.004014257341623306,-0.0010122909443452954
1685476187097721000,17.83972119140625,0.5599365234375,0.006021386012434959,-0.004136430099606514
1685476187117721000,17.85972119140625,0.5538976788520813,0.004764748737215996,-0.0012391837080940604
1685476187137721000,17.87972119140625,0.5727996230125427,0.0080634206533432,-0.0013962633674964309
1685476187157721000,17.89972119140625,0.5843886137008667,0.005201081279665232,-0.00502654816955328
1685476187177721000,17.91972119140625,0.5790827870368958,0.0034382985904812813,-0.005078908056020737
1685476187197721000,17.93972119140625,0.5725377798080444,0.005044001620262861,-0.0037350046914070845
1685476187217721000,17.95972119140625,0.573201060295105,0.006265731994062662,-0.0005235987482592463
1685476187237721000,17.97972119140625,0.5879316329956055,0.004607669077813625,-0.004310963209718466
1685476187257721000,17.99972119140625,0.609329342842102,0.00427605677396059,-0.0028448866214603186
1685476187277721000,18.01972119140625,0.6353696584701538,0.004869468510150909,-0.0006457717972807586
1685476187297721000,18.03972119140625,0.6853907704353333,0.0015358896926045418,-0.011431906372308731
1685476187317721000,18.05972119140625,0.7236832976341248,0.006771877408027649,-0.0015358896926045418
1685476187337721000,18.07972119140625,0.7568969130516052,0.005864306353032589,-0.0036477381363511086
1685476187357721000,18.09972119140625,0.7794466018676758,0.005619960371404886,-0.0063355453312397
1685476187377721000,18.11972119140625,0.8220500946044922,0.0044156829826533794,-0.00457276264205575
1685476187397721000,18.13972119140625,0.8709542155265808,0.0016755161341279745,-0.0067544239573180676
1685476187417721000,18.15972119140625,0.9305921196937561,0.005550147034227848,-0.0035953782498836517
1685476187437721000,18.17972119140625,0.9891129732131958,0.004625122528523207,-0.013124875724315643
1685476187457721000,18.19972119140625,1.0396053791046143,0.009616764262318611,-0.010070549324154854
1685476187477721000,18.21972119140625,1.0927506685256958,0.0131772356107831,-0.019774580374360085
1685476187497721000,18.23972119140625,1.1727739572525024,0.00874409917742014,-0.018570303916931152
1685476187517721000,18.25972119140625,1.1994426250457764,0.011501720175147057,-0.004939281847327948
1685476187537721000,18.27972119140625,1.2508774995803833,0.01151917316019535,-0.011798425577580929
1685476187557721000,18.29972119140625,1.2656254768371582,0.009599311277270317,-0.013613567687571049
1685476187577721000,18.31972119140625,1.2420111894607544,0.010524335317313671,-0.006684611085802317
1685476187597721000,18.33972119140625,1.204347014427185,0.011414453387260437,-0.010698867961764336
1685476187617721000,18.35972119140625,1.1383386850357056,0.00930260494351387,-0.012775810435414314
1685476187637721000,18.37972119140625,1.0596067905426025,0.005951572675257921,-0.015358896926045418
1685476187657721000,18.39972119140625,1.0475291013717651,0.0063355453312397,-0.015097098425030708
1685476187677721000,18.41972119140625,1.0768158435821533,0.00890117883682251,-0.014503685757517815
1685476187697721000,18.43972119140625,1.174344778060913,0.005829399451613426,-0.022794000804424286
1685476187717721000,18.45972119140625,1.2333019971847534,0.005201081279665232,-0.017749998718500137
1685476187737721000,18.47972119140625,1.2795357704162598,0.008639379404485226,-0.008587019518017769
1685476187757721000,18.49972119140625,1.3256124258041382,0.012287117540836334,-0.00678933085873723
1685476187777721000,18.51972119140625,1.3742722272872925,0.006544984877109528,-0.009861109778285027
1685476187797721000,18.53972119140625,1.3756859302520752,0.008569566532969475,-0.006248278543353081
1685476187817721000,18.55972119140625,1.3416869640350342,0.006370451766997576,-0.0021118484437465668
1685476187837721000,18.57972119140625,1.3318607807159424,0.009512044489383698,-0.003351032268255949
1685476187857721000,18.59972119140625,1.3386151790618896,0.007923794910311699,-0.0067544239573180676
1685476187877721000,18.61972119140625,1.3139362335205078,0.01211258489638567,-0.00905825849622488
1685476187897721000,18.63972119140625,1.2634438276290894,0.008045967668294907,-0.003944444004446268
1685476187917721000,18.65972119140625,1.2170006036758423,0.006073745898902416,-0.006492624990642071
1685476187937721000,18.67972119140625,1.1842931509017944,0.004886921960860491,-0.0033684854861348867
1685476187957721000,18.69972119140625,1.1624939441680908,0.004380776546895504,-0.00823795422911644
1685476187977721000,18.71972119140625,1.1314271688461304,0.004817108623683453,-0.006998770404607058
1685476187997721000,18.73972119140625,1.0910053253173828,0.009861109778285027,-0.002460914198309183
1685476188017721000,18.75972119140625,1.074215292930603,0.00593411922454834,-0.005235987715423107
1685476188037721000,18.77972119140625,1.0577218532562256,0.006318091880530119,-0.007417649496346712
1685476188057721000,18.79972119140625,0.9959372282028198,0.002146754879504442,-0.010978121310472488
1685476188077721000,18.81972119140625,0.9766513109207153,0.005829399451613426,-0.006056292448192835
1685476188097721000,18.83972119140625,1.0328857898712158,0.007801621686667204,-0.006998770404607058
1685476188117721000,18.85972119140625,1.067233920097351,0.008203047327697277,-0.0037350046914070845
1685476188137721000,18.87972119140625,1.0776011943817139,0.004625122528523207,-0.010786134749650955
1685476188157721000,18.89972119140625,1.116382360458374,0.008534659631550312,-0.005113814491778612
1685476188177721000,18.91972119140625,1.1531914472579956,0.009948376566171646,-0.00724311638623476
1685476188197721000,18.93972119140625,1.1955156326293945,0.005864306353032589,-0.007749261800199747
1685476188217721000,18.95972119140625,1.2325689792633057,0.008045967668294907,-0.008726646192371845
1685476188237721000,18.97972119140625,1.207575798034668,0.009162978269159794,-0.005305801052600145
1685476188257721000,18.99972119140625,1.2348029613494873,0.007470009382814169,-0.00708603672683239
1685476188277721000,19.01972119140625,1.2639849185943604,0.006911503616720438,-0.010506882332265377
1685476188297721000,19.03972119140625,1.2918927669525146,0.00898844562470913,-0.007976154796779156
1685476188317721000,19.05972119140625,1.3155767917633057,0.007609635591506958,-0.0067544239573180676
1685476188337721000,19.07972119140625,1.2984201908111572,0.010873401537537575,-0.0033684854861348867
1685476188357721000,19.09972119140625,1.2455716133117676,0.0038746309000998735,-0.00427605677396059
1685476188377721000,19.11972119140625,1.2655032873153687,0.010070549324154854,-0.007016223389655352
1685476188397721000,19.13972119140625,1.259639024734497,0.005864306353032589,-0.005515240598469973
1685476188417721000,19.15972119140625,1.2268093824386597,0.010437068529427052,-0.01012290921062231
1685476188437721000,19.17972119140625,1.1470478773117065,0.009354964829981327,-0.00874409917742014
1685476188457721000,19.19972119140625,1.033898115158081,0.008028514683246613,-0.00783652812242508
1685476188477721000,19.21972119140625,0.9635264873504639,0.005288347601890564,-0.00874409917742014
1685476188497721000,19.23972119140625,0.9314473271369934,0.00457276264205575,-0.007347836159169674
1685476188517721000,19.25972119140625,0.9362643957138062,0.0021816615480929613,-0.0066147977486252785
1685476188537721000,19.27972119140625,0.9591980576515198,0.0034208453726023436,-0.0023038345389068127
1685476188557721000,19.29972119140625,1.0138442516326904,0.006021386012434959,-0.004049163777381182
1685476188577721000,19.31972119140625,1.06351637840271,0.010646508075296879,-0.006056292448192835
1685476188597721000,19.33972119140625,1.0940072536468506,0.008587019518017769,-0.00769690191373229
1685476188617721000,19.35972119140625,1.1302752494812012,0.009738937020301819,-0.0062831854447722435
1685476188637721000,19.37972119140625,1.155111312866211,0.007155850064009428,-0.009738937020301819
1685476188657721000,19.39972119140625,1.1416023969650269,0.006946410518139601,-0.0044156829826533794
1685476188677721000,19.41972119140625,1.1099246740341187,0.006597344763576984,-0.004817108623683453
1685476188697721000,19.43972119140625,1.1152130365371704,0.004485496319830418,-0.0055850534699857235
1685476188717721000,19.45972119140625,1.1278318166732788,0.008866272866725922,-0.004468042869120836
1685476188737721000,19.47972119140625,1.0968871116638184,0.00769690191373229,-0.003804817795753479
1685476188757721000,19.49972119140625,1.0251715183258057,0.011850785464048386,-0.005113814491778612
1685476188777721000,19.51972119140625,1.0450682640075684,0.00563741335645318,-0.0029845130629837513
1685476188797721000,19.53972119140625,1.07032310962677,0.0028623400721699,-0.007173303049057722
1685476188817721000,19.55972119140625,1.0692410469055176,0.0031939526088535786,-0.005899212788790464
1685476188837721000,19.57972119140625,1.0292381048202515,0.008028514683246613,-0.0025830871891230345
1685476188857721000,19.59972119140625,0.9352172017097473,0.008831365965306759,-0.0017104226863011718
1685476188877721000,19.61972119140625,0.85838782787323,0.009477137587964535,-0.003979350905865431
1685476188897721000,19.63972119140625,0.8226958513259888,0.006195918656885624,-0.004939281847327948
1685476188917721000,19.65972119140625,0.7349581718444824,0.004607669077813625,-0.005235987715423107
1685476188937721000,19.67972119140625,0.6923022866249084,0.005288347601890564,-0.0045378562062978745
1685476188957721000,19.69972119140625,0.7381172180175781,0.0031590459402650595,-0.0057072266936302185
1685476188977721000,19.71972119140625,0.7707199454307556,0.003804817795753479,-0.0044156829826533794
1685476188997721000,19.73972119140625,0.7909832000732422,0.0031066860537976027,-0.006422811653465033
1685476189017721000,19.75972119140625,0.8277572989463806,0.0012042771559208632,-0.005742133129388094
1685476189037721000,19.77972119140625,0.8750033378601074,-0.0008028514566831291,-0.004241149872541428
1685476189057721000,19.79972119140625,0.930801510810852,0.003490658476948738,-0.005358160939067602
1685476189077721000,19.81972119140625,0.953455924987793,0.006824237294495106,-0.007138396613299847
1685476189097721000,19.83972119140625,0.9558993577957153,0.005654866807162762,-0.007051130291074514
1685476189117721000,19.85972119140625,0.9668076634407043,0.003089232835918665,-0.0036477381363511086
1685476189137721000,19.87972119140625,0.9693558812141418,0.0024085543118417263,-0.005532693583518267
1685476189157721000,19.89972119140625,1.0111216306686401,0.004014257341623306,-0.004904375411570072
1685476189177721000,19.91972119140625,1.0845824480056763,0.0050090947188436985,-0.007417649496346712
1685476189197721000,19.93972119140625,1.142230749130249,0.006527531426399946,-0.005811946466565132
1685476189217721000,19.95972119140625,1.1370995044708252,0.003752457909286022,-0.004921828396618366
1685476189237721000,19.97972119140625,1.0954384803771973,0.00038397242315113544,-0.003455751808360219
1685476189257721000,19.99972119140625,1.0805681943893433,0.0007853981805965304,-0.004520402755588293
1685476189277721000,20.01972119140625,1.0893995761871338,0.009564404375851154,-0.006440265104174614
1685476189297721000,20.03972119140625,1.1245330572128296,-0.0016057029133662581,-0.0008726646192371845
1685476189317721000,20.05972119140625,1.1302926540374756,-0.007522369269281626,-0.00041887903353199363
1685476189337721000,20.07972119140625,1.1465940475463867,0.003752457909286022,-0.0010646508308127522
1685476189357721000,20.09972119140625,1.1601552963256836,0.009093165397644043,-0.009738937020301819
1685476189377721000,20.11972119140625,1.1493167877197266,0.007103490177541971,-0.004380776546895504
1685476189397721000,20.13972119140625,1.0978120565414429,0.005375613924115896,-0.0034382985904812813
1685476189417721000,20.15972119140625,1.0213667154312134,0.006859143730252981,-0.006492624990642071
1685476189437721000,20.17972119140625,0.945950984954834,-0.0022689281031489372,-0.0007679448463022709
1685476189457722600,20.19972265625,0.9571211338043213,0.011484266258776188,-0.007871435023844242
1685476189477721000,20.21972119140625,0.9504016041755676,0.006510077975690365,-0.0031590459402650595
1685476189497721000,20.23972119140625,0.9145350456237793,0.009040805511176586,-0.0038920841179788113
1685476189517721000,20.25972119140625,0.8998394012451172,0.005235987715423107,-0.005550147034227848
1685476189537721000,20.27972119140625,0.8889310956001282,0.00783652812242508,-0.008272860199213028
1685476189557721000,20.29972119140625,0.8744273781776428,0.005166174378246069,-0.006230825558304787
1685476189577721000,20.31972119140625,0.8478984236717224,0.008587019518017769,-0.0050090947188436985
1685476189597721000,20.33972119140625,0.8339532017707825,0.006405358202755451,-0.0073129297234117985
1685476189617721000,20.35972119140625,0.845210611820221,0.00855211354792118,-0.004782202187925577
1685476189637721000,20.37972119140625,0.8644441366195679,0.006544984877109528,-0.006213372107595205
1685476189657721000,20.39972119140625,0.8572883009910583,0.006370451766997576,-0.004904375411570072
1685476189677721000,20.41972119140625,0.8516857624053955,0.006440265104174614,-0.006946410518139601
1685476189697721000,20.43972119140625,0.8500276803970337,0.006981316953897476,-0.006248278543353081
1685476189717721000,20.45972119140625,0.8422784209251404,0.010070549324154854,-0.004520402755588293
1685476189737721000,20.47972119140625,0.8424355387687683,0.010594148188829422,-0.005829399451613426
1685476189757721000,20.49972119140625,0.8448091745376587,0.009372417815029621,-0.0057246801443398
1685476189777721000,20.51972119140625,0.9149714112281799,0.005829399451613426,-0.005916666239500046
1685476189797721000,20.53972119140625,1.011854648590088,0.005881759338080883,-0.004014257341623306
1685476189817721000,20.55972119140625,1.025101661682129,0.00808087456971407,-0.00609119888395071
1685476189837721000,20.57972119140625,0.9755343198776245,0.009407324716448784,-0.004660028964281082
1685476189857721000,20.59972119140625,0.931098222732544,0.006806783843785524,-0.00609119888395071
1685476189877721000,20.61972119140625,0.857776939868927,0.005148721393197775,-0.003996803890913725
1685476189897721000,20.63972119140625,0.8979195356369019,0.011170106939971447,-0.0051312679424881935
1685476189917721000,20.65972119140625,0.9361248016357422,0.0023038345389068127,-0.005462880712002516
1685476189937721000,20.67972119140625,0.9887115359306335,0.003455751808360219,-0.0055850534699857235
1685476189957721000,20.69972119140625,1.0347882509231567,0.009267698042094707,-0.006248278543353081
1685476189977721000,20.71972119140625,1.0435497760772705,0.0075747291557490826,-0.007347836159169674
1685476189997721000,20.73972119140625,1.0289064645767212,0.008534659631550312,-0.010192723013460636
1685476190017721000,20.75972119140625,0.9494067430496216,-0.0018500490114092827,-0.005096361506730318
1685476190037721000,20.77972119140625,1.068350911140442,0.011990412138402462,-0.007400196045637131
1685476190057722600,20.79972265625,1.0818946361541748,0.008499753661453724,-0.0028623400721699
1685476190077721000,20.81972119140625,1.1044443845748901,0.00945968460291624,-0.002251474652439356
1685476190097721000,20.83972119140625,1.098876714706421,0.005044001620262861,-0.005445427261292934
1685476190117721000,20.85972119140625,1.0849664211273193,0.0103672556579113,-0.005323254037648439
1685476190137721000,20.87972119140625,1.0103710889816284,0.013665927574038506,-0.0071907564997673035
1685476190157730300,20.899730224609375,0.9225461483001709,0.0061610122211277485,-0.0074525559321045876
1685476190177721000,20.91972119140625,0.8672715425491333,0.004607669077813625,-0.0030194194987416267
1685476190197722600,20.93972265625,0.8478285670280457,0.0060388389974832535,-0.0025656339712440968
1685476190217721000,20.95972119140625,0.8252265453338623,0.00518362782895565,-0.004852015525102615
1685476190237721000,20.97972119140625,0.8045444488525391,0.0063355453312397,-0.00472984230145812
1685476190257721000,20.99972119140625,0.8005825281143188,0.0023387412074953318,-0.005550147034227848
1685476190277721000,21.01972119140625,0.7374365329742432,0.0024958208668977022,-0.003717551240697503
1685476190297721000,21.03972119140625,0.7202450037002563,0.00205948855727911,-0.0025656339712440968
1685476190317721000,21.05972119140625,0.7794116735458374,0.004834562074393034,-0.004747295752167702
1685476190337721000,21.07972119140625,0.8264657855033875,0.006806783843785524,-0.004869468510150909
1685476190357721000,21.09972119140625,0.7930601835250854,0.005148721393197775,-0.0032114058267325163
1685476190377721000,21.11972119140625,0.7237705588340759,0.002460914198309183,-0.003717551240697503
1685476190397721000,21.13972119140625,0.6840468645095825,0.00678933085873723,-0.003630284918472171
1685476190417721000,21.15972119140625,0.6448991298675537,0.006003932561725378,-0.0007853981805965304
1685476190437721000,21.17972119140625,0.5499008893966675,0.008621926419436932,0.0010122909443452954
1685476190457722600,21.19972265625,0.48261845111846924,0.0075747291557490826,0.001972222002223134
1685476190477722600,21.21972265625,0.45113271474838257,0.007888888008892536,-0.00045378561480902135
1685476190497721000,21.23972119140625,0.40655699372291565,0.008203047327697277,0.002234021434560418
1685476190517721000,21.25972119140625,0.37348300218582153,0.005864306353032589,0.0005061454721726477
1685476190537721000,21.27972119140625,0.28955012559890747,0.005305801052600145,-0.0012391837080940604
1685476190557721000,21.29972119140625,0.19273671507835388,0.004520402755588293,-0.0012915435945615172
1685476190577721000,21.31972119140625,0.12058480083942413,0.0025656339712440968,-0.00029670598451048136
1685476190597721000,21.33972119140625,0.05110324174165726,-0.00045378561480902135,-0.0005759586347267032
1685476190617721000,21.35972119140625,0.0026354470755904913,0.001117010717280209,-0.00017453292093705386
1685476190637721000,21.37972119140625,0,-0.0010646508308127522,-0.00125663704238832
1685476190657721000,21.39972119140625,0.00031415926059708,-0.0009599310578778386,-0.0007853981805965304
1685476190677721000,21.41972119140625,-0.00047123889089562,0.0002617993741296232,-0.00019198621157556772
1685476190697721000,21.43972119140625,0.00010471975838299841,0.0010471974965184927,0.0003665191470645368
1685476190717721000,21.45972119140625,-0.000017453292457503267,0.0024085543118417263,0.0020420351065695286
1685476190737721000,21.47972119140625,-0.000017453292457503267,0.0009250245057046413,0.00010471975838299841
1685476190757721000,21.49972119140625,0.0010995573829859495,-0.006405358202755451,-0.003525565145537257
1685476190777721000,21.51972119140625,-0.00024434609804302454,0.00062831852119416,0.000017453292457503267
1685476190797721000,21.53972119140625,0.000052359879191499203,-0.0014486232539638877,-0.0011519172694534063
1685476190817721000,21.55972119140625,-0.00040142572834156454,-0.0013962633674964309,-0.0006806784076616168
1685476190837721000,21.57972119140625,0.0005759586347267032,-0.0012915435945615172,0.0003316125657875091
1685476190857721000,21.59972119140625,0.002914699725806713,-0.00045378561480902135,-0.0003665191470645368
1685476190877721000,21.61972119140625,0.17362534999847412,0.005201081279665232,-0.0015358896926045418
1685476190897721000,21.63972119140625,0.5034402012825012,0.0019024088978767395,-0.0006457717972807586
1685476190917721000,21.65972119140625,0.6794915795326233,0.00427605677396059,-0.002321287989616394
1685476190937721000,21.67972119140625,0.724014937877655,0.0021293016616255045,-0.007278022821992636
1685476190957721000,21.69972119140625,0.7445574402809143,0.0034732052590698004,-0.003944444004446268
1685476190977721000,21.71972119140625,0.7643494606018066,0.0008726646192371845,-0.008936085738241673
1685476190997721000,21.73972119140625,0.7862184643745422,-0.0013089969288557768,-0.007906341925263405
1685476191017721000,21.75972119140625,0.7976852655410767,-0.003996803890913725,-0.01302015595138073
1685476191037721000,21.77972119140625,0.8110195994377136,0.0012042771559208632,-0.00708603672683239
1685476191057721000,21.79972119140625,0.8157843351364136,0.0031590459402650595,-0.005986479111015797
1685476191077721000,21.81972119140625,0.8315795660018921,0.006527531426399946,-0.00609119888395071
1685476191097721000,21.83972119140625,0.8538848757743835,0.005427973810583353,-0.007976154796779156
1685476191117721000,21.85972119140625,0.8842361569404602,0.0046774824149906635,-0.007487462367862463
1685476191137721000,21.87972119140625,0.8869065046310425,0.009983283467590809,-0.005462880712002516
1685476191157721000,21.89972119140625,0.881496012210846,0.010751227848231792,-0.006579891312867403
1685476191177721000,21.91972119140625,0.9075537323951721,0.003281218931078911,-0.006318091880530119
1685476191197721000,21.93972119140625,0.903696596622467,0.007347836159169674,-0.003996803890913725
1685476191217721000,21.95972119140625,0.8673064708709717,0.008220500312745571,-0.005166174378246069
1685476191237721000,21.97972119140625,0.8643394112586975,0.007801621686667204,-0.006300638429820538
1685476191257721000,21.99972119140625,0.8710938096046448,0.001117010717280209,-0.0051312679424881935
1685476191277721000,22.01972119140625,0.9102240800857544,0.00954695139080286,-0.0031415927223861217
1685476191297721000,22.03972119140625,0.9387253522872925,0.008028514683246613,-0.005096361506730318
1685476191317721000,22.05972119140625,0.9406102895736694,0.009110618382692337,-0.005969026125967503
1685476191337721000,22.07972119140625,0.9350601434707642,0.006771877408027649,-0.006492624990642071
1685476191357721000,22.09972119140625,0.912021815776825,0.008412486873567104,-0.005602506920695305
1685476191377721000,22.11972119140625,0.9681515693664551,0.008045967668294907,-0.010018189437687397
1685476191397721000,22.13972119140625,1.0252937078475952,0.013596114702522755,-0.0025307273026555777
1685476191417721000,22.15972119140625,1.0447540283203125,0.009773843921720982,-0.005916666239500046
1685476191437721000,22.17972119140625,1.0163227319717407,0.006440265104174614,-0.010437068529427052
1685476191457721000,22.19972119140625,1.0137919187545776,0.003036872949451208,-0.012618730776011944
1685476191477721000,22.21972119140625,0.9987472295761108,0.005148721393197775,-0.004764748737215996
1685476191497721000,22.23972119140625,1.0402685403823853,0.006963863503187895,-0.009197885170578957
1685476191517721000,22.25972119140625,1.1291756629943848,0.010262535884976387,-0.006405358202755451
1685476191537721000,22.27972119140625,1.1315667629241943,0.008325220085680485,-0.009581857360899448
1685476191557721000,22.29972119140625,1.1655832529067993,0.007487462367862463,-0.009337511844933033
1685476191577721000,22.31972119140625,1.0982484817504883,0.010663961991667747,-0.0077667152509093285
1685476191597721000,22.33972119140625,1.0423105955123901,0.007522369269281626,-0.00457276264205575
1685476191617721000,22.35972119140625,0.9221272468566895,0.007295476272702217,-0.006667157635092735
1685476191637721000,22.37972119140625,0.6969448924064636,0.004241149872541428,-0.005044001620262861
1685476191657721000,22.39972119140625,0.5159193277359009,0.0024085543118417263,-0.004869468510150909
1685476191677721000,22.41972119140625,0.6090500950813293,0.0016755161341279745,-0.002827433403581381
1685476191697722600,22.43972265625,0.8566250205039978,0.003909537568688393,-0.004188789986073971
1685476191717721000,22.45972119140625,1.2226030826568604,0.011658798903226852,-0.0014137167017906904
1685476191737721000,22.47972119140625,1.4896210432052612,0.010018189437687397,-0.008813912980258465
1685476191757721000,22.49972119140625,1.6778199672698975,0.015114551410079002,-0.012007865123450756
1685476191777721000,22.51972119140625,1.7258862257003784,0.01333431527018547,-0.006911503616720438
1685476191797721000,22.53972119140625,1.6358273029327393,0.014887658879160881,-0.009756390936672688
1685476191817721000,22.55972119140625,1.5257319211959839,0.013002702966332436,-0.0063355453312397
1685476191837721000,22.57972119140625,1.3952685594558716,0.006963863503187895,-0.00472984230145812
1685476191857721000,22.59972119140625,1.2597612142562866,0.01129228062927723,-0.00724311638623476
1685476191877721000,22.61972119140625,1.221747875213623,0.012705996632575989,-0.005846852902323008
1685476191897721000,22.63972119140625,1.2512788772583008,0.00930260494351387,-0.008761553093791008
1685476191917780500,22.659780517578124,1.2808098793029785,0.010559242218732834,-0.008761553093791008
1685476191937721000,22.67972119140625,1.252814769744873,0.008429939858615398,-0.007661995477974415
1685476191957721000,22.69972119140625,1.206755518913269,0.010943214409053326,-0.004869468510150909
1685476191977721000,22.71972119140625,1.1713428497314453,0.010873401537537575,-0.010629055090248585
1685476191997721000,22.73972119140625,1.1089123487472534,0.00839503388851881,-0.006562437862157822
1685476192017721000,22.75972119140625,1.0239672660827637,0.007278022821992636,-0.005270894151180983
1685476192037721000,22.77972119140625,0.9743824005126953,0.009930923581123352,-0.0040317103266716
1685476192057721000,22.79972119140625,0.9537875056266785,0.004747295752167702,-0.006841690745204687
1685476192077721000,22.81972119140625,0.9594598412513733,0.005916666239500046,-0.005986479111015797
1685476192097721000,22.83972119140625,0.9610306620597839,0.007120943162590265,-0.004206243436783552
1685476192117721000,22.85972119140625,0.9387253522872925,0.005654866807162762,-0.003228859044611454
1685476192137721000,22.87972119140625,0.8920726776123047,0.01120501384139061,-0.006527531426399946
1685476192157721000,22.89972119140625,0.8363268971443176,0.003525565145537257,-0.006719517521560192
1685476192177721000,22.91972119140625,0.7838273644447327,0.005096361506730318,-0.002548180753365159
1685476192197721000,22.93972119140625,0.760981023311615,0.006510077975690365,-0.006370451766997576
1685476192217721000,22.95972119140625,0.7619060277938843,0.01080358773469925,-0.003909537568688393
1685476192237721000,22.97972119140625,0.770143985748291,0.007225662935525179,-0.0029845130629837513
1685476192257721000,22.99972119140625,0.7570714950561523,0.004921828396618366,-0.006318091880530119
1685476192277721000,23.01972119140625,0.7607191801071167,0.0037350046914070845,-0.005497787147760391
1685476192297721000,23.03972119140625,0.7551167011260986,0.007138396613299847,-0.003054326167330146
1685476192317721000,23.05972119140625,0.743562638759613,0.005218534264713526,-0.006265731994062662
1685476192337721000,23.07972119140625,0.7079753279685974,0.0042236968874931335,-0.004590216092765331
1685476192357721000,23.09972119140625,0.683715283870697,0.004485496319830418,-0.005951572675257921
1685476192377721000,23.11972119140625,0.6875724792480469,0.006806783843785524,-0.0034382985904812813
1685476192397721000,23.13972119140625,0.7046417593955994,0.0019547687843441963,-0.007365289609879255
1685476192417721000,23.15972119140625,0.7163180112838745,0.005515240598469973,-0.0010821041651070118
1685476192437721000,23.17972119140625,0.7194421887397766,0.002827433403581381,-0.00518362782895565
1685476192457721000,23.19972119140625,0.7172954082489014,0.010663961991667747,-0.00376991112716496
1685476192477721000,23.21972119140625,0.6954962611198425,0.0023561944253742695,-0.004171337001025677
1685476192497721000,23.23972119140625,0.682039737701416,0.006318091880530119,-0.00548033369705081
1685476192517721000,23.25972119140625,0.6931226253509521,0.005113814491778612,-0.002775073517113924
1685476192537721000,23.27972119140625,0.6886196732521057,0.003490658476948738,-0.0038397242315113544
1685476192557721000,23.29972119140625,0.6559645533561707,0.0045378562062978745,-0.004188789986073971
1685476192577721000,23.31972119140625,0.6344969868659973,0.004485496319830418,-0.003403391921892762
1685476192597721000,23.33972119140625,0.6185272336006165,0.0026703537441790104,-0.004380776546895504
1685476192617721000,23.35972119140625,0.6082472205162048,0.004258603323251009,-0.004049163777381182
1685476192637721000,23.37972119140625,0.5985082983970642,0.003455751808360219,-0.005218534264713526
1685476192657721000,23.39972119140625,0.5787512063980103,0.003909537568688393,-0.003176499158143997
1685476192677721000,23.41972119140625,0.5534439086914062,0.0005934119690209627,-0.006318091880530119
1685476192697722600,23.43972265625,0.5509655475616455,0.0013788101496174932,-0.0024958208668977022
1685476192717721000,23.45972119140625,0.526984691619873,0.0019896754529327154,-0.003909537568688393
1685476192737721000,23.47972119140625,0.5023755431175232,0.002914699725806713,-0.004380776546895504
1685476192757721000,23.49972119140625,0.4859694838523865,0.002600540639832616,-0.0028623400721699
1685476192777721000,23.51972119140625,0.4645717442035675,0.0018500490114092827,-0.003263765713199973
1685476192797721000,23.53972119140625,0.4366988241672516,0.0012740903766825795,-0.002687806962057948
1685476192817721000,23.55972119140625,0.42500513792037964,0.0034382985904812813,-0.001972222002223134
1685476192837721000,23.57972119140625,0.39392080903053284,0.0005585053586401045,-0.0030717793852090836
