time,seconds_elapsed,z,y,x
1685476169296870000,0.038869873046875,9.819961547851562,-0.04876509681344032,-0.02023579180240631
1685476169316871400,0.058871337890625,9.827011108398438,-0.030291439965367317,-0.020657172426581383
1685476169336871400,0.078871337890625,9.798117637634277,-0.029084762558341026,-0.001436521066352725
1685476169356871400,0.098871337890625,9.817204475402832,-0.04215710610151291,-0.006722918711602688
1685476169376870000,0.118869873046875,9.820785522460938,-0.0446758046746254,-0.018684351816773415
1685476169396871400,0.138871337890625,9.821906089782715,-0.03616202250123024,-0.021289242431521416
1685476169416876300,0.158876220703125,9.810633659362793,-0.03149811923503876,-0.00913627352565527
1685476169436871400,0.178871337890625,9.805903434753418,-0.03988740220665932,-0.011204863898456097
1685476169456871400,0.198871337890625,9.809226989746094,-0.042453981935977936,-0.020389020442962646
1685476169476870000,0.218869873046875,9.81912899017334,-0.045461103320121765,-0.019019538536667824
1685476169496870000,0.238869873046875,9.801057815551758,-0.04008851200342178,-0.028299463912844658
1685476169516877800,0.2588779296875,9.813526153564453,-0.03982993960380554,-0.005592855159193277
1685476169536870000,0.278869873046875,9.790714263916016,-0.030109480023384094,-0.02078167162835598
1685476169556871400,0.298871337890625,9.812721252441406,-0.03897760435938835,-0.017017986625432968
1685476169576870000,0.318869873046875,9.807531356811523,-0.039801210165023804,-0.009222464635968208
1685476169596871400,0.338871337890625,9.801162719726562,-0.03829764947295189,-0.0037636850029230118
1685476169616873200,0.358873291015625,9.812137603759766,-0.04497268423438072,-0.022476764395833015
1685476169636870000,0.378869873046875,9.814800262451172,-0.04143884405493736,-0.01971864514052868
1685476169656870000,0.398869873046875,9.802197456359863,-0.033451784402132034,-0.007374141365289688
1685476169676870000,0.418869873046875,9.806018829345703,-0.02983175218105316,-0.004826710559427738
1685476169696870000,0.438869873046875,9.808910369873047,-0.036075834184885025,-0.014920664951205254
1685476169716871400,0.458871337890625,9.7863187789917,-0.042453981935977936,-0.024305934086441994
1685476169736870000,0.478869873046875,9.805893898010254,-0.03720589354634285,-0.011204863898456097
1685476169756870000,0.498869873046875,9.80407428741455,-0.037167586386203766,0.0008810661965981126
1685476169776870000,0.518869873046875,9.80505084991455,-0.03497450053691864,-0.017544711008667946
1685476169796870000,0.538869873046875,9.804006576538086,-0.041505880653858185,-0.020321983844041824
1685476169816870000,0.558869873046875,9.802254676818848,-0.04255932942032814,-0.008274360559880733
1685476169836870000,0.578869873046875,9.809226989746094,-0.03747404366731644,-0.014729129150509834
1685476169856870000,0.598869873046875,9.804763793945312,-0.04923436418175697,-0.013723564334213734
1685476169876870000,0.618869873046875,9.8038911819458,-0.03322194144129753,-0.01978568360209465
1685476169896870000,0.638869873046875,9.807090759277344,-0.04275086522102356,-0.01888546347618103
1685476169916870000,0.658869873046875,9.799755096435547,-0.04369897022843361,-0.011769895441830158
1685476169936870000,0.678869873046875,9.802072525024414,-0.049799397587776184,-0.0055449712090194225
1685476169956870000,0.698869873046875,9.795770645141602,-0.042549751698970795,-0.004893748089671135
1685476169976870000,0.718869873046875,9.802416801452637,-0.03111504577100277,-0.009270348586142063
1685476169996870000,0.738869873046875,9.793242454528809,-0.04770207777619362,-0.01938345655798912
1685476170016870000,0.758869873046875,9.812836647033691,-0.03646847978234291,-0.010955866426229477
1685476170036870000,0.778869873046875,9.800415992736816,-0.04687846824526787,-0.0257137268781662
1685476170056870000,0.798869873046875,9.787017822265625,-0.03288675472140312,-0.007134721148759127
1685476170076871400,0.818871337890625,9.798988342285156,-0.03694731742143631,-0.005353434942662716
1685476170096870000,0.838869873046875,9.788856506347656,-0.028328193351626396,-0.006090848706662655
1685476170116870000,0.858869873046875,9.80179500579834,-0.03953305631875992,-0.005315127782523632
1685476170136870000,0.878869873046875,9.811735153198242,-0.048784252256155014,-0.009481038898229599
1685476170156870000,0.898869873046875,9.78858757019043,-0.04495352879166603,-0.006205771118402481
1685476170176870000,0.918869873046875,9.800119400024414,-0.03680367022752762,-0.018004396930336952
1685476170196870000,0.938869873046875,9.803201675415039,-0.04113238677382469,-0.00759440753608942
1685476170216870000,0.958869873046875,9.801037788391113,-0.03630567714571953,-0.019699491560459137
1685476170236870000,0.978869873046875,9.808794975280762,-0.04322970658540726,-0.01418325025588274
1685476170256870000,0.998869873046875,9.800013542175293,-0.032120607793331146,-0.021557392552495003
1685476170276870000,1.018869873046875,9.797121047973633,-0.03651636466383934,-0.01468124520033598
1685476170296870000,1.038869873046875,9.806612014770508,-0.03087562508881092,-0.0246411245316267
1685476170316870000,1.058869873046875,9.796700477600098,-0.049464207142591476,-0.013436260633170605
1685476170336871400,1.078871337890625,9.794066429138184,-0.033901896327733994,-0.01869392767548561
1685476170356871400,1.098871337890625,9.80009937286377,-0.022476764395833015,-0.0235780980437994
1685476170376870000,1.118869873046875,9.779145240783691,-0.046955082565546036,-0.016768990084528923
1685476170396870000,1.138869873046875,9.80064582824707,-0.04307647794485092,-0.02490927465260029
1685476170416871400,1.158871337890625,9.79308032989502,-0.04308605194091797,-0.007335834205150604
1685476170436870000,1.178869873046875,9.790024757385254,-0.03751235082745552,-0.015112200751900673
1685476170456870000,1.198869873046875,9.796891212463379,-0.038920141756534576,-0.010965443216264248
1685476170476870000,1.218869873046875,9.79725456237793,-0.029419951140880585,-0.014135366305708885
1685476170496870000,1.238869873046875,9.800224304199219,-0.04654328152537346,-0.01223915908485651
1685476170516870000,1.258869873046875,9.797954559326172,-0.034706346690654755,-0.01014183834195137
1685476170536870000,1.278869873046875,9.78380012512207,-0.0440724641084671,-0.01846408285200596
1685476170556870000,1.298869873046875,9.786979675292969,-0.05625416338443756,-0.02217988483607769
1685476170576870000,1.318869873046875,9.792773246765137,-0.049895163625478745,-0.02042732760310173
1685476170596870000,1.338869873046875,9.802848815917969,-0.03208230063319206,0.0008619126165285707
1685476170616870000,1.358869873046875,9.799687385559082,-0.04023216664791107,-0.020321983844041824
1685476170636870000,1.378869873046875,9.810585975646973,-0.03839341551065445,-0.008992621675133705
1685476170656870000,1.398869873046875,9.804064750671387,-0.04665820300579071,-0.010304644703865051
1685476170676870000,1.418869873046875,9.787879943847656,-0.029554026201367378,-0.01357991248369217
1685476170696870000,1.438869873046875,9.799639701843262,-0.029678523540496826,-0.00287304213270545
1685476170716870000,1.458869873046875,9.797351837158203,-0.04568136855959892,-0.021385010331869125
1685476170736871400,1.478871337890625,9.792495727539062,-0.03556825965642929,-0.014805743470788002
1685476170756870000,1.498869873046875,9.783771514892578,-0.022926876321434975,-0.024449586868286133
1685476170776870000,1.518869873046875,9.805252075195312,-0.03523306921124458,-0.006330269388854504
1685476170796870000,1.538869873046875,9.815174102783203,-0.03733997046947479,-0.011224017478525639
1685476170816870000,1.558869873046875,9.799506187438965,-0.029697677120566368,-0.007058106362819672
1685476170836870000,1.578869873046875,9.791911125183105,-0.03616202250123024,-0.007900865748524666
1685476170856870000,1.598869873046875,9.786308288574219,-0.032005686312913895,-0.009816226549446583
1685476170876870000,1.618869873046875,9.806296348571777,-0.045767560601234436,-0.015160084702074528
1685476170896870000,1.638869873046875,9.802454948425293,-0.025225309655070305,-0.016788143664598465
1685476170916871400,1.658871337890625,9.803020477294922,-0.044896069914102554,-0.025771187618374825
1685476170936870000,1.678869873046875,9.796250343322754,-0.03412216156721115,0.0024995466228574514
1685476170956870000,1.698869873046875,9.79517650604248,-0.039140406996011734,-0.009854533709585667
1685476170976870000,1.718869873046875,9.797428131103516,-0.037004780024290085,-0.011808202601969242
1685476170996870000,1.738869873046875,9.78815746307373,-0.03665044158697128,-0.02301306650042534
1685476171016870000,1.758869873046875,9.807368278503418,-0.04824795201420784,-0.019747374579310417
1685476171036870000,1.778869873046875,9.7952241897583,-0.04193683713674545,-0.020839132368564606
1685476171056870000,1.798869873046875,9.801412582397461,-0.051006071269512177,-0.017458518967032433
1685476171076870000,1.818869873046875,9.793912887573242,-0.03254198655486107,-0.01751597970724106
1685476171096870000,1.838869873046875,9.820469856262207,-0.04201345145702362,-0.012899958528578281
1685476171116870000,1.858869873046875,9.792332649230957,-0.02696828916668892,-0.013455414213240147
1685476171136870000,1.878869873046875,9.79948616027832,-0.04891832917928696,-0.013809755444526672
1685476171156870000,1.898869873046875,9.806238174438477,-0.03559699282050133,-0.010180145502090454
1685476171176870000,1.918869873046875,9.788186073303223,-0.03666001558303833,-0.01333091501146555
1685476171196870000,1.938869873046875,9.78858757019043,-0.038048651069402695,-0.004328716546297073
1685476171216870000,1.958869873046875,9.805472373962402,-0.023099258542060852,-0.01333091501146555
1685476171236870000,1.978869873046875,9.797082901000977,-0.030607474967837334,-0.003284844569861889
1685476171256870000,1.998869873046875,9.811773300170898,-0.04853525385260582,0.00042137951822951436
1685476171276870000,2.018869873046875,9.814675331115723,-0.028921956196427345,-0.01943134143948555
1685476171296870000,2.038869873046875,9.80156421661377,-0.03839341551065445,-0.010955866426229477
1685476171316870000,2.058869873046875,9.79704475402832,-0.03139277175068855,-0.02303222008049488
1685476171336870000,2.078869873046875,9.796058654785156,-0.04096957668662071,-0.017803283408284187
1685476171356870000,2.098869873046875,9.797178268432617,-0.041314344853162766,-0.013752294704318047
1685476171376870000,2.118869873046875,9.803040504455566,-0.03553953021764755,-0.028309039771556854
1685476171396870000,2.138869873046875,9.805903434753418,-0.04222413897514343,-0.011731588281691074
1685476171416870000,2.158869873046875,9.79638385772705,-0.046840161085128784,-0.02423889748752117
1685476171436870000,2.178869873046875,9.791413307189941,-0.04122815281152725,-0.009643844328820705
1685476171456870000,2.198869873046875,9.7944974899292,-0.031191660091280937,-0.0034093433059751987
1685476171476870000,2.218869873046875,9.79045581817627,-0.0499909333884716,-0.004357446916401386
1685476171496870000,2.238869873046875,9.784345626831055,-0.03284844756126404,-0.008571241982281208
1685476171516870000,2.258869873046875,9.802828788757324,-0.04812345653772354,-0.010668562725186348
1685476171536870000,2.278869873046875,9.791653633117676,-0.02921883761882782,-0.023166295140981674
1685476171556870000,2.298869873046875,9.769712448120117,-0.029659369960427284,-0.02606806717813015
1685476171576870000,2.318869873046875,9.794343948364258,-0.03254198655486107,-0.01886630989611149
1685476171596870000,2.338869873046875,9.797762870788574,-0.03076070360839367,-0.02758120372891426
1685476171616870000,2.358869873046875,9.800386428833008,-0.03371993452310562,-0.0063589997589588165
1685476171636870000,2.378869873046875,9.788674354553223,-0.039494749158620834,-0.005525817163288593
1685476171656870000,2.398869873046875,9.779260635375977,-0.058638785034418106,-0.006579265929758549
1685476171676870000,2.418869873046875,9.785198211669922,-0.03747404366731644,-0.01822466216981411
1685476171696870000,2.438869873046875,9.792006492614746,-0.04431188479065895,-0.017563864588737488
1685476171716870000,2.458869873046875,9.815728187561035,-0.0322355292737484,-0.015389928594231606
1685476171736870000,2.478869873046875,9.804754257202148,-0.045231256633996964,-0.024708162993192673
1685476171756870000,2.498869873046875,9.803729057312012,-0.04381389170885086,-0.017496826127171516
1685476171776870000,2.518869873046875,9.800071716308594,-0.031976956874132156,-0.0026719290763139725
1685476171796870000,2.538869873046875,9.789191246032715,-0.05159026011824608,0.005525817163288593
1685476171816870000,2.558869873046875,9.789125442504883,-0.03741658478975296,-0.025321077555418015
1685476171836870000,2.578869873046875,9.806066513061523,-0.04438849911093712,-0.007469909265637398
1685476171856870000,2.598869873046875,9.790704727172852,-0.03963840380311012,-0.003840299556031823
1685476171876870000,2.618869873046875,9.786050796508789,-0.045250412076711655,-0.010745177045464516
1685476171896870000,2.638869873046875,9.784269332885742,-0.03917871415615082,-0.029084762558341026
1685476171916870000,2.658869873046875,9.782305717468262,-0.041007883846759796,-0.009931148961186409
1685476171936870000,2.678869873046875,9.800042152404785,-0.03571191430091858,-0.022974759340286255
1685476171956870000,2.698869873046875,9.79912281036377,-0.037924155592918396,-0.004443638492375612
1685476171976929300,2.71892919921875,9.794190406799316,-0.03412216156721115,-0.008408436551690102
1685476171996870000,2.738869873046875,9.805586814880371,-0.03748362511396408,-0.024535780772566795
1685476172016870000,2.758869873046875,9.792121887207031,-0.04118984565138817,-0.02296518348157406
1685476172036870000,2.778869873046875,9.793635368347168,-0.04592078924179077,-0.012852074578404427
1685476172056870000,2.798869873046875,9.779165267944336,-0.04209006577730179,-0.022151153534650803
1685476172076870000,2.818869873046875,9.805088996887207,-0.03500322625041008,-0.017171215265989304
1685476172096870000,2.838869873046875,9.78877067565918,-0.03488830476999283,-0.0027772739995270967
1685476172116870000,2.858869873046875,9.796154022216797,-0.03552995249629021,-0.015466542914509773
1685476172136870000,2.878869873046875,9.800578117370605,-0.05191586911678314,-0.020609289407730103
1685476172156870000,2.898869873046875,9.793539047241211,-0.05237555876374245,-0.013551182113587856
1685476172176870000,2.918869873046875,9.797887802124023,-0.04635174572467804,-0.015696385875344276
1685476172196870000,2.938869873046875,9.802225112915039,-0.04818091541528702,-0.022189460694789886
1685476172216870000,2.958869873046875,9.783138275146484,-0.041084498167037964,-0.017927782610058784
1685476172236870000,2.978869873046875,9.790484428405762,-0.032101456075906754,-0.005880159325897694
1685476172256870000,2.998869873046875,9.78984260559082,-0.04102703928947449,-0.003993528429418802
1685476172276870000,3.018869873046875,9.786041259765625,-0.04507802799344063,-0.015591041184961796
1685476172296870000,3.038869873046875,9.81104564666748,-0.04518337547779083,-0.028826188296079636
1685476172316870000,3.058869873046875,9.787055969238281,-0.03485957533121109,-0.02137543261051178
1685476172336870000,3.078869873046875,9.791135787963867,-0.04103661701083183,-0.022160731256008148
1685476172356870000,3.098869873046875,9.772738456726074,-0.0437181256711483,-0.008667009882628918
1685476172376870000,3.118869873046875,9.794832229614258,-0.03987782448530197,-0.013934253714978695
1685476172396870000,3.138869873046875,9.800137519836426,-0.030818164348602295,-0.008427590131759644
1685476172416870000,3.158869873046875,9.796977996826172,-0.04353616386651993,-0.01997721940279007
1685476172436870000,3.178869873046875,9.780869483947754,-0.044704534113407135,-0.005765237845480442
1685476172456870000,3.198869873046875,9.780888557434082,-0.05560293793678284,-0.01148259174078703
1685476172476870000,3.218869873046875,9.797945022583008,-0.041362229734659195,-0.01338837668299675
1685476172496870000,3.238869873046875,9.800195693969727,-0.048880018293857574,0.0034093433059751987
1685476172516870000,3.258869873046875,9.793548583984375,-0.04096957668662071,-0.013206415809690952
1685476172536870000,3.278869873046875,9.794622421264648,-0.03985866904258728,-0.02279280126094818
1685476172556870000,3.298869873046875,9.795014381408691,-0.038805220276117325,-0.017736246809363365
1685476172576870000,3.318869873046875,9.791029930114746,-0.032474953681230545,-0.015351621434092522
1685476172596870000,3.338869873046875,9.791566848754883,-0.055440135300159454,-0.018262969329953194
1685476172616870000,3.358869873046875,9.803375244140625,-0.05298847332596779,-0.015524003654718399
1685476172636870000,3.378869873046875,9.790063858032227,-0.038613684475421906,-0.020791247487068176
1685476172656870000,3.398869873046875,9.791029930114746,-0.03754108399152756,-0.0070868367329239845
1685476172676870000,3.418869873046875,9.79971694946289,-0.043593622744083405,-0.003390189725905657
1685476172696870000,3.438869873046875,9.795138359069824,-0.034533966332674026,-0.014939818531274796
1685476172716870000,3.458869873046875,9.814502716064453,-0.03606625273823738,-0.0018291701562702656
1685476172736870000,3.478869873046875,9.798270225524902,-0.030463824048638344,-0.007469909265637398
1685476172756870000,3.498869873046875,9.797159194946289,-0.03603752702474594,-0.016548721119761467
1685476172776870000,3.518869873046875,9.785284042358398,-0.032379183918237686,-0.02473689243197441
1685476172796870000,3.538869873046875,9.78756332397461,-0.053304508328437805,-0.018052279949188232
1685476172816870000,3.558869873046875,9.788119316101074,-0.03620990738272667,-0.0261829886585474
1685476172836870000,3.578869873046875,9.793835639953613,-0.04372769966721535,-0.017257405444979668
1685476172856870000,3.598869873046875,9.794448852539062,-0.03756023943424225,-0.016979679465293884
1685476172876870000,3.618869873046875,9.783186912536621,-0.03869029879570007,-0.019871873781085014
1685476172896870000,3.638869873046875,9.812664031982422,-0.03445735201239586,-0.014346056617796421
1685476172916870000,3.658869873046875,9.78538990020752,-0.03837426379323006,-0.02213199995458126
1685476172936870000,3.678869873046875,9.791950225830078,-0.03447650372982025,-0.024152705445885658
1685476172956870000,3.698869873046875,9.806756019592285,-0.034533966332674026,-0.006952761672437191
1685476172976870000,3.718869873046875,9.789450645446777,-0.030109480023384094,-0.01936430297791958
1685476172996870000,3.738869873046875,9.79780101776123,-0.037311241030693054,-0.016433799639344215
1685476173016870000,3.758869873046875,9.77943229675293,-0.03489788621664047,-0.0111378263682127
1685476173036870000,3.778869873046875,9.79361629486084,-0.04347870126366615,-0.010448296554386616
1685476173056870000,3.798869873046875,9.79268741607666,-0.05047934874892235,-0.03606625273823738
1685476173076870000,3.818869873046875,9.80277156829834,-0.04433104023337364,-0.01877054199576378
1685476173096870000,3.838869873046875,9.805624961853027,-0.02990836650133133,-0.006234501488506794
1685476173116870000,3.858869873046875,9.787334442138672,-0.05047934874892235,0.003897760296240449
1685476173136870000,3.878869873046875,9.798864364624023,-0.04392881318926811,-0.006703765131533146
1685476173156870000,3.898869873046875,9.790139198303223,-0.048046842217445374,0.0017621323931962252
1685476173176870000,3.918869873046875,9.794534683227539,-0.05078580603003502,-0.01124317105859518
1685476173196870000,3.938869873046875,9.791107177734375,-0.04571967571973801,-0.018492812290787697
1685476173216870000,3.958869873046875,9.804879188537598,-0.04368939250707626,-0.0075465235859155655
1685476173236870000,3.978869873046875,9.797858238220215,-0.045010991394519806,-0.0034859576262533665
1685476173256870000,3.998869873046875,9.785160064697266,-0.04258805885910988,0.0008906430448405445
1685476173276870000,4.018869873046875,9.786308288574219,-0.03227383643388748,-0.015773000195622444
1685476173296870000,4.038869873046875,9.789986610412598,-0.03644932433962822,-0.013943830505013466
1685476173316870000,4.058869873046875,9.795886039733887,-0.05171475559473038,-0.013464991003274918
1685476173336870000,4.078869873046875,9.796489715576172,-0.047309424728155136,-0.026345795020461082
1685476173356870000,4.098869873046875,9.80107593536377,-0.04282747954130173,0.00022026654914952815
1685476173376870000,4.118869873046875,9.800175666809082,-0.027495011687278748,-0.006655880715698004
1685476173396870000,4.138869873046875,9.788071632385254,-0.03487873077392578,-0.004156333860009909
1685476173416870000,4.158869873046875,9.791356086730957,-0.038402996957302094,-0.00226012640632689
1685476173436870000,4.178869873046875,9.796355247497559,-0.035903450101614,-0.023750480264425278
1685476173456870000,4.198869873046875,9.802034378051758,-0.039513904601335526,-0.021605275571346283
1685476173476870000,4.218869873046875,9.797063827514648,-0.043871354311704636,-0.009979032911360264
1685476173496870000,4.238869873046875,9.782296180725098,-0.04030878096818924,-0.007326257415115833
1685476173516870000,4.258869873046875,9.789613723754883,-0.03887225687503815,-0.01583046093583107
1685476173536870000,4.278869873046875,9.800482749938965,-0.04312435910105705,-0.01912488415837288
1685476173556870000,4.298869873046875,9.793874740600586,-0.032005686312913895,0.002413355279713869
1685476173576870000,4.318869873046875,9.80930233001709,-0.03919786959886551,0.0024899698328226805
1685476173596870000,4.338869873046875,9.80325984954834,-0.04549941048026085,-0.02703532576560974
1685476173616870000,4.358869873046875,9.797236442565918,-0.04483860731124878,-0.021155167371034622
1685476173636870000,4.378869873046875,9.792083740234375,-0.052672434598207474,-0.0006033388199284673
1685476173656870000,4.398869873046875,9.794995307922363,-0.036506786942481995,-0.008791509084403515
1685476173676870000,4.418869873046875,9.80020523071289,-0.02897941693663597,-0.009873687289655209
1685476173696870000,4.438869873046875,9.798097610473633,-0.047098737210035324,-0.016950948163866997
1685476173716870000,4.458869873046875,9.78658676147461,-0.036363136023283005,-0.020752940326929092
1685476173736870000,4.478869873046875,9.778541564941406,-0.036966472864151,-0.0054587796330451965
1685476173756870000,4.498869873046875,9.787956237792969,-0.048832137137651443,-0.01687433384358883
1685476173776870000,4.518869873046875,9.797840118408203,-0.04540364071726799,-0.01433647982776165
1685476173796870000,4.538869873046875,9.798356056213379,-0.035702336579561234,-0.016740258783102036
1685476173816870000,4.558869873046875,9.79317569732666,-0.04034708812832832,-0.0015322890831157565
1685476173836870000,4.578869873046875,9.795618057250977,-0.03111504577100277,-0.020245369523763657
1685476173856870000,4.598869873046875,9.813152313232422,-0.036506786942481995,-0.01952710933983326
1685476173876870000,4.618869873046875,9.790053367614746,-0.03479253873229027,-0.019517531618475914
1685476173896870000,4.638869873046875,9.787343978881836,-0.05858132615685463,-0.0213275495916605
1685476173916870000,4.658869873046875,9.793998718261719,-0.04453215003013611,-0.008197746239602566
1685476173936870000,4.678869873046875,9.808507919311523,-0.04485776275396347,-0.009835380129516125
1685476173956870000,4.698869873046875,9.808938980102539,-0.05192544683814049,-0.013350068591535091
1685476173976870000,4.718869873046875,9.785168647766113,-0.03358586132526398,-0.023051373660564423
1685476173996870000,4.738869873046875,9.79934310913086,-0.030645782127976418,-0.010754753835499287
1685476174016870000,4.758869873046875,9.80489730834961,-0.037502776831388474,-0.0036391867324709892
1685476174036870000,4.778869873046875,9.81285572052002,-0.035769373178482056,-0.011118672788143158
1685476174056870000,4.798869873046875,9.789297103881836,-0.03678451478481293,-0.007508216425776482
1685476174076870000,4.818869873046875,9.803594589233398,-0.034466926008462906,-0.018301276490092278
1685476174096870000,4.838869873046875,9.801487922668457,-0.03540545701980591,-0.0036391867324709892
1685476174116870000,4.858869873046875,9.788808822631836,-0.058025870472192764,-0.023262064903974533
1685476174136870000,4.878869873046875,9.79072380065918,-0.051389146596193314,-0.014116212725639343
1685476174156870000,4.898869873046875,9.780610084533691,-0.03622906282544136,-0.016912641003727913
1685476174176870000,4.918869873046875,9.800042152404785,-0.0367366299033165,-0.019823990762233734
1685476174196870000,4.938869873046875,9.804275512695312,-0.044187385588884354,0.0003447650233283639
1685476174216870000,4.958869873046875,9.798768997192383,-0.04758715257048607,-0.02272576279938221
1685476174236870000,4.978869873046875,9.78565788269043,-0.0502399280667305,-0.01917276717722416
1685476174256870000,4.998869873046875,9.792793273925781,-0.04666777700185776,-0.008255206979811192
1685476174276870000,5.018869873046875,9.806401252746582,-0.043967120349407196,-0.015476119704544544
1685476174296870000,5.038869873046875,9.802982330322266,-0.05345773696899414,-0.019709067419171333
1685476174316870000,5.058869873046875,9.789238929748535,-0.04241567477583885,-0.014748282730579376
1685476174336870000,5.078869873046875,9.798213005065918,-0.045202530920505524,-0.017046716064214706
1685476174356871400,5.098871337890625,9.785293579101562,-0.04495352879166603,-0.01388636976480484
1685476174376870000,5.118869873046875,9.78996753692627,-0.0477403849363327,-0.023894133046269417
1685476174396870000,5.138869873046875,9.802149772644043,-0.043095629662275314,-0.016309302300214767
1685476174416870000,5.158869873046875,9.804638862609863,-0.04236779361963272,-0.006454767659306526
1685476174436870000,5.178869873046875,9.79918098449707,-0.05194459855556488,-0.008887276984751225
1685476174456870000,5.198869873046875,9.789813995361328,-0.04003105312585831,-0.013915100134909153
1685476174476870000,5.218869873046875,9.80522346496582,-0.04473326355218887,-0.005525817163288593
1685476174496870000,5.238869873046875,9.797657012939453,-0.04822879657149315,-0.01737232692539692
1685476174516870000,5.258869873046875,9.809896469116211,-0.05001965910196304,-0.023070527240633965
1685476174536870000,5.278869873046875,9.799870491027832,-0.023750480264425278,-0.013436260633170605
1685476174556870000,5.298869873046875,9.795263290405273,-0.023807941004633904,-0.005880159325897694
1685476174576870000,5.318869873046875,9.799649238586426,-0.03852749243378639,-0.015064316801726818
1685476174596870000,5.338869873046875,9.800703048706055,-0.04239652305841446,-0.012449849396944046
1685476174616870000,5.358869873046875,9.780074119567871,-0.04734773188829422,-0.024181436747312546
1685476174636870000,5.378869873046875,9.786059379577637,-0.031976956874132156,-0.009203311055898666
1685476174656870000,5.398869873046875,9.79300308227539,-0.04353616386651993,-0.01819593273103237
1685476174676870000,5.418869873046875,9.793644905090332,-0.04056735336780548,-0.011702857911586761
1685476174696870000,5.438869873046875,9.776846885681152,-0.040251318365335464,-0.008188169449567795
1685476174716870000,5.458869873046875,9.793673515319824,-0.035654451698064804,-0.0015418659895658493
1685476174736870000,5.478869873046875,9.788990020751953,-0.06437529623508453,-0.022764069959521294
1685476174756870000,5.498869873046875,9.803882598876953,-0.04068227484822273,-0.021480778232216835
1685476174776870000,5.518869873046875,9.791097640991211,-0.030980970710515976,-0.02873999811708927
1685476174796870000,5.538869873046875,9.806448936462402,-0.038517918437719345,-0.016433799639344215
1685476174816870000,5.558869873046875,9.796431541442871,-0.05447287857532501,-0.005612008739262819
1685476174836870000,5.578869873046875,9.796076774597168,-0.035903450101614,-0.017046716064214706
1685476174856870000,5.598869873046875,9.799601554870605,-0.04423527047038078,-0.02310883440077305
1685476174876870000,5.618869873046875,9.795215606689453,-0.042549751698970795,-0.010802637785673141
1685476174896870000,5.638869873046875,9.787017822265625,-0.046294283121824265,-0.01822466216981411
1685476174916870000,5.658869873046875,9.789191246032715,-0.038805220276117325,-0.018310854211449623
1685476174936870000,5.678869873046875,9.794889450073242,-0.02798342891037464,-0.020350713282823563
1685476174956870000,5.698869873046875,9.792284965515137,-0.04511633515357971,-0.005698200315237045
1685476174976870000,5.718869873046875,9.788856506347656,-0.04955997318029404,-0.009864110499620438
1685476174996870000,5.738869873046875,9.796125411987305,-0.04898536577820778,-0.020369866862893105
1685476175016870000,5.758869873046875,9.793865203857422,-0.03627694398164749,-0.01898123137652874
1685476175036870000,5.778869873046875,9.792207717895508,-0.029486987739801407,0.001924938173033297
1685476175056870000,5.798869873046875,9.79687213897705,-0.02459324151277542,0.001628057099878788
1685476175076870000,5.818869873046875,9.80827808380127,-0.042339060455560684,-0.023702597245573997
1685476175096870000,5.838869873046875,9.800396919250488,-0.054013192653656006,-0.021404163911938667
1685476175116871400,5.858871337890625,9.785361289978027,-0.05031654238700867,-0.004501099232584238
1685476175136870000,5.878869873046875,9.78991985321045,-0.043871354311704636,-0.0023463177494704723
1685476175156870000,5.898869873046875,9.787257194519043,-0.035482071340084076,-0.012152967043220997
1685476175176870000,5.918869873046875,9.781942367553711,-0.048688482493162155,-0.010553641244769096
1685476175196870000,5.938869873046875,9.795838356018066,-0.04843948781490326,-0.01860773377120495
1685476175216870000,5.958869873046875,9.793684005737305,-0.03769431263208389,-0.0184832364320755
1685476175236870000,5.978869873046875,9.800625801086426,-0.041410114616155624,-0.003849876346066594
1685476175256870000,5.998869873046875,9.789412498474121,-0.032618604600429535,-0.02147120051085949
1685476175276870000,6.018869873046875,9.792112350463867,-0.045413218438625336,-0.013915100134909153
1685476175296870000,6.038869873046875,9.79503345489502,-0.052643708884716034,-0.02986048348248005
1685476175316870000,6.058869873046875,9.794841766357422,-0.042310334742069244,-0.02378878742456436
1685476175336870000,6.078869873046875,9.788311004638672,-0.029103916138410568,-0.006253655068576336
1685476175356870000,6.098869873046875,9.792668342590332,-0.0408833883702755,-0.015294160693883896
1685476175376871400,6.118871337890625,9.793395042419434,-0.04410119727253914,-0.015064316801726818
1685476175396870000,6.138869873046875,9.782727241516113,-0.042166680097579956,-0.009643844328820705
1685476175416870000,6.158869873046875,9.795981407165527,-0.05019204318523407,-0.011185710318386555
1685476175436870000,6.178869873046875,9.805960655212402,-0.032972946763038635,-0.01469082199037075
1685476175456871400,6.198871337890625,9.797188758850098,-0.03723462298512459,-0.019488802179694176
1685476175476870000,6.218869873046875,9.798346519470215,-0.03914998471736908,-0.0171807911247015
1685476175496870000,6.238869873046875,9.803297996520996,-0.036296095699071884,-0.01793735846877098
1685476175516870000,6.258869873046875,9.790292739868164,-0.03822103515267372,-0.008676586672663689
1685476175536870000,6.278869873046875,9.789948463439941,-0.04639962688088417,-0.02537853829562664
1685476175556870000,6.298869873046875,9.789487838745117,-0.0361332930624485,-0.011731588281691074
1685476175576870000,6.318869873046875,9.775822639465332,-0.040845081210136414,-0.009557653218507767
1685476175596870000,6.338869873046875,9.791452407836914,-0.03359543904662132,-0.01489193458110094
1685476175616870000,6.358869873046875,9.790389060974121,-0.04082592949271202,-0.024353818967938423
1685476175636870000,6.378869873046875,9.785667419433594,-0.038565799593925476,-0.010342951864004135
1685476175656870000,6.398869873046875,9.791375160217285,-0.044206537306308746,-0.018397044390439987
1685476175676870000,6.418869873046875,9.789460182189941,-0.04458003491163254,-0.01258392445743084
1685476175696870000,6.438869873046875,9.798547744750977,-0.039207447320222855,-0.013608642853796482
1685476175716870000,6.458869873046875,9.796049118041992,-0.05045061931014061,-0.01318726222962141
1685476175736870000,6.478869873046875,9.778446197509766,-0.04528871923685074,-0.022649148479104042
1685476175756870000,6.498869873046875,9.799141883850098,-0.03966713324189186,-0.00784340500831604
1685476175776870000,6.518869873046875,9.782649993896484,-0.042741287499666214,-0.007374141365289688
1685476175796870000,6.538869873046875,9.802552223205566,-0.04569094628095627,-0.01983356662094593
1685476175816870000,6.558869873046875,9.791452407836914,-0.048688482493162155,-0.006100425496697426
1685476175836870000,6.578869873046875,9.793586730957031,-0.039255332201719284,-0.0004405330982990563
1685476175856870000,6.598869873046875,9.779059410095215,-0.04817133769392967,-0.008015787228941917
1685476175876870000,6.618869873046875,9.788980484008789,-0.04133350029587746,-0.002308010356500745
1685476175896870000,6.638869873046875,9.790369033813477,-0.03373908996582031,-0.018205508589744568
1685476175916870000,6.658869873046875,9.79966926574707,-0.04393838718533516,-0.018215086311101913
1685476175936870000,6.678869873046875,9.792169570922852,-0.05078580603003502,-0.0006224924582056701
1685476175956870000,6.698869873046875,9.791997909545898,-0.04018428176641464,-0.011549629271030426
1685476175976870000,6.718869873046875,9.786864280700684,-0.035721488296985626,-0.0037636850029230118
1685476175996870000,6.738869873046875,9.796212196350098,-0.04319139942526817,-0.01268926914781332
1685476176016870000,6.758869873046875,9.79531192779541,-0.045556869357824326,-0.00452025281265378
1685476176036870000,6.778869873046875,9.789200782775879,-0.03500322625041008,0.0020781669300049543
1685476176056870000,6.798869873046875,9.791796684265137,-0.05779602751135826,-0.01543781254440546
1685476176076870000,6.818869873046875,9.802340507507324,-0.03757939115166664,-0.014815320260822773
1685476176096870000,6.838869873046875,9.781769752502441,-0.05760449171066284,-0.009097966365516186
1685476176116870000,6.858869873046875,9.789143562316895,-0.04616020992398262,-0.0213275495916605
1685476176136870000,6.878869873046875,9.783416748046875,-0.03831680119037628,-0.010678139515221119
1685476176156870000,6.898869873046875,9.797447204589844,-0.031000124290585518,-0.028242003172636032
1685476176176870000,6.918869873046875,9.797954559326172,-0.02592441625893116,-0.0017429788131266832
1685476176196870000,6.938869873046875,9.794459342956543,-0.0400502048432827,-0.013254300691187382
1685476176216870000,6.958869873046875,9.793865203857422,-0.04236779361963272,-0.006253655068576336
1685476176236870000,6.978869873046875,9.797599792480469,-0.04093126952648163,-0.0033327287528663874
1685476176256870000,6.998869873046875,9.79361629486084,-0.049464207142591476,-0.024104822427034378
1685476176276870000,7.018869873046875,9.780850410461426,-0.039580944925546646,-0.03324109688401222
1685476176296870000,7.038869873046875,9.78117561340332,-0.03942771628499031,-0.019393034279346466
1685476176316870000,7.058869873046875,9.784575462341309,-0.04843948781490326,0.0017046716529875994
1685476176336870000,7.078869873046875,9.789469718933105,-0.04853525385260582,-0.019862297922372818
1685476176356870000,7.098869873046875,9.780179977416992,-0.04030878096818924,-0.011271901428699493
1685476176376870000,7.118869873046875,9.799745559692383,-0.04827668517827988,-0.01497812569141388
1685476176396870000,7.138869873046875,9.790552139282227,-0.04618893936276436,-0.015370775014162064
1685476176416870000,7.158869873046875,9.800673484802246,-0.03580768033862114,-0.013962984085083008
1685476176436870000,7.178869873046875,9.794421195983887,-0.03277183324098587,-0.01088882889598608
1685476176456870000,7.198869873046875,9.795713424682617,-0.040797196328639984,-0.018904617056250572
1685476176476870000,7.218869873046875,9.807951927185059,-0.04305732250213623,-0.01129105594009161
1685476176496870000,7.238869873046875,9.793395042419434,-0.03868072107434273,-0.018808849155902863
1685476176516870000,7.258869873046875,9.789153099060059,-0.02919010818004608,-0.018492812290787697
1685476176536870000,7.278869873046875,9.801191329956055,-0.038613684475421906,-0.013129801489412785
1685476176556870000,7.298869873046875,9.791796684265137,-0.04056735336780548,-0.008197746239602566
1685476176576870000,7.318869873046875,9.785120964050293,-0.04678269848227501,-0.028069620952010155
1685476176596870000,7.338869873046875,9.78842544555664,-0.05158068239688873,-0.016261417418718338
1685476176616870000,7.358869873046875,9.794478416442871,-0.03561614453792572,-0.009701305069029331
1685476176636870000,7.378869873046875,9.78538990020752,-0.045250412076711655,-0.01827254705131054
1685476176656870000,7.398869873046875,9.79720687866211,-0.03874776139855385,-0.018799273297190666
1685476176676870000,7.418869873046875,9.804370880126953,-0.04206133633852005,-0.014470554888248444
1685476176696870000,7.438869873046875,9.778867721557617,-0.03326982632279396,-0.012478579767048359
1685476176716870000,7.458869873046875,9.791604995727539,-0.031048007309436798,-0.009672574698925018
1685476176736870000,7.478869873046875,9.781435012817383,-0.040586505085229874,-0.016318878158926964
1685476176756870000,7.498869873046875,9.803077697753906,-0.05546886473894119,-0.014499285258352757
1685476176776870000,7.518869873046875,9.803077697753906,-0.04118984565138817,-0.016931794583797455
1685476176796870000,7.538869873046875,9.788999557495117,-0.03887225687503815,-0.018397044390439987
1685476176816870000,7.558869873046875,9.789229393005371,-0.03869029879570007,-0.014422670938074589
1685476176836870000,7.578869873046875,9.799448013305664,-0.038498762995004654,-0.026882097125053406
1685476176856870000,7.598869873046875,9.800625801086426,-0.03410300984978676,-0.018828002735972404
1685476176876870000,7.618869873046875,9.789268493652344,-0.044445961713790894,-0.014508862048387527
1685476176896870000,7.638869873046875,9.794726371765137,-0.0497610904276371,-0.0027964275795966387
1685476176916870000,7.658869873046875,9.776741981506348,-0.031316157430410385,-0.007738059852272272
1685476176936870000,7.678869873046875,9.789344787597656,-0.034064702689647675,-0.015054740011692047
1685476176956870000,7.698869873046875,9.788119316101074,-0.04094085097312927,-0.017190368846058846
1685476176976870000,7.718869873046875,9.799448013305664,-0.04807556793093681,-0.017199944704771042
1685476176996870000,7.738869873046875,9.791059494018555,-0.04722323641180992,-0.00969172827899456
1685476177016870000,7.758869873046875,9.787841796875,-0.04301901534199715,-0.02203623205423355
1685476177036870000,7.778869873046875,9.782670021057129,-0.052739474922418594,-0.011377247050404549
1685476177056870000,7.798869873046875,9.80974292755127,-0.03635355830192566,-0.021030668169260025
1685476177076870000,7.818869873046875,9.794554710388184,-0.042406100779771805,-0.0038019923958927393
1685476177096870000,7.838869873046875,9.789335250854492,-0.040845081210136414,-0.000804451759904623
1685476177116871400,7.858871337890625,9.788138389587402,-0.046102747321128845,-0.01578257791697979
1685476177136870000,7.878869873046875,9.783464431762695,-0.05372588708996773,-0.01758301816880703
1685476177156870000,7.898869873046875,9.79687213897705,-0.04189852997660637,-0.026700137183070183
1685476177176870000,7.918869873046875,9.787975311279297,-0.04518337547779083,-0.024229319766163826
1685476177196870000,7.938869873046875,9.800434112548828,-0.03671747446060181,-0.0015610195696353912
1685476177216870000,7.958869873046875,9.806583404541016,-0.039063792675733566,-0.01642422378063202
1685476177236870000,7.978869873046875,9.791950225830078,-0.048257529735565186,-0.01801397278904915
1685476177256870000,7.998869873046875,9.782028198242188,-0.03449565917253494,-0.03035847656428814
1685476177276870000,8.018869873046874,9.799094200134277,-0.04118984565138817,-0.01158793643116951
1685476177296870000,8.038869873046876,9.779327392578125,-0.03817315399646759,-0.009337387047708035
1685476177316870000,8.058869873046875,9.783570289611816,-0.03730166330933571,-0.01223915908485651
1685476177336870000,8.078869873046875,9.79965877532959,-0.03670790046453476,-0.02483266033232212
1685476177356870000,8.098869873046874,9.794746398925781,-0.02873999811708927,-0.013924676924943924
1685476177376870000,8.118869873046876,9.791815757751465,-0.03376782312989235,-0.01661575958132744
1685476177396870000,8.138869873046875,9.793022155761719,-0.03324109688401222,-0.006177040748298168
1685476177416870000,8.158869873046875,9.79983139038086,-0.025397691875696182,-0.002940079662948847
1685476177436870000,8.178869873046875,9.779289245605469,-0.04222413897514343,-0.01706586964428425
1685476177456870000,8.198869873046876,9.797035217285156,-0.0329442135989666,-0.02149035409092903
1685476177476870000,8.218869873046875,9.789718627929688,-0.0354246087372303,-0.0072783734649419785
1685476177496870000,8.238869873046875,9.791298866271973,-0.03165134787559509,-0.013417107053101063
1685476177516870000,8.258869873046875,9.792180061340332,-0.05205952003598213,-0.014614207670092583
1685476177536870000,8.278869873046874,9.798969268798828,-0.04028962552547455,-0.01599326729774475
1685476177556870000,8.298869873046876,9.790982246398926,-0.04781699925661087,-0.017640478909015656
1685476177576870000,8.318869873046875,9.779173851013184,-0.034562695771455765,-0.02623087354004383
1685476177596870000,8.338869873046875,9.806333541870117,-0.04019385948777199,-0.013924676924943924
1685476177616870000,8.358869873046874,9.788799285888672,-0.043277591466903687,-0.015303737483918667
1685476177636870000,8.378869873046876,9.799382209777832,-0.05706819146871567,-0.024305934086441994
1685476177656870000,8.398869873046875,9.791078567504883,-0.05139872431755066,-0.015284583903849125
1685476177676870000,8.418869873046875,9.797168731689453,-0.03566402941942215,-0.01177947223186493
1685476177696870000,8.438869873046874,9.797331809997559,-0.05513367801904678,-0.016883911564946175
1685476177716870000,8.458869873046876,9.779739379882812,-0.04661031812429428,-0.015294160693883896
1685476177736870000,8.478869873046875,9.797236442565918,-0.05513367801904678,-0.016721105203032494
1685476177756870000,8.498869873046875,9.787429809570312,-0.04507802799344063,-0.01697010174393654
1685476177776870000,8.518869873046874,9.791950225830078,-0.039580944925546646,-0.012344504706561565
1685476177796870000,8.538869873046876,9.793835639953613,-0.041007883846759796,-0.008149862289428711
1685476177816870000,8.558869873046875,9.796489715576172,-0.05303635820746422,-0.0031124623492360115
1685476177836870000,8.578869873046875,9.795502662658691,-0.04968447610735893,-0.012957419268786907
1685476177856870000,8.598869873046874,9.784652709960938,-0.04767334461212158,-0.01697010174393654
1685476177876870000,8.618869873046876,9.785064697265625,-0.04617936164140701,-0.00958638358861208
1685476177896870000,8.638869873046875,9.79099178314209,-0.027763161808252335,-0.006885724142193794
1685476177916870000,8.658869873046875,9.7838773727417,-0.03854664787650108,-0.02134670317173004
1685476177936870000,8.678869873046875,9.794046401977539,-0.03919786959886551,-0.00994072575122118
1685476177956870000,8.698869873046876,9.7937593460083,-0.03168965503573418,-0.004357446916401386
1685476177976870000,8.718869873046875,9.807531356811523,-0.030751127749681473,-0.016098611056804657
1685476177996870000,8.738869873046875,9.792169570922852,-0.03855622559785843,-0.004807556979358196
1685476178016870000,8.758869873046875,9.797571182250977,-0.049732357263565063,-0.01238281186670065
1685476178036870000,8.778869873046874,9.798356056213379,-0.05114014819264412,-0.0013982137897983193
1685476178056870000,8.798869873046876,9.805261611938477,-0.03447650372982025,0.00022026654914952815
1685476178076870000,8.818869873046875,9.791259765625,-0.041505880653858185,-0.014269442297518253
1685476178096870000,8.838869873046875,9.796316146850586,-0.041620802134275436,-0.0007565676933154464
1685476178116870000,8.858869873046874,9.795244216918945,-0.03444777429103851,-0.02327164076268673
1685476178136870000,8.878869873046876,9.795933723449707,-0.037636853754520416,-0.0017429788131266832
1685476178156870000,8.898869873046875,9.79224681854248,-0.04248271510004997,-0.02078167162835598
1685476178176870000,8.918869873046875,9.791059494018555,-0.03236003220081329,-0.03788584843277931
1685476178196870000,8.938869873046874,9.783885955810547,-0.04482903331518173,-0.008762778714299202
1685476178216870000,8.958869873046876,9.796489715576172,-0.039580944925546646,-0.012928688898682594
1685476178236870000,8.978869873046875,9.793166160583496,-0.05035484954714775,-0.024497471749782562
1685476178256870000,8.998869873046875,9.795943260192871,-0.034361582249403,-0.017458518967032433
1685476178276870000,9.018869873046874,9.794421195983887,-0.031478963792324066,-0.02405693754553795
1685476178296870000,9.038869873046876,9.786212921142578,-0.04458003491163254,-0.005248090252280235
1685476178316870000,9.058869873046875,9.789469718933105,-0.04774995893239975,-0.015849614515900612
1685476178336870000,9.078869873046875,9.782401084899902,-0.035673607140779495,-0.01444182451814413
1685476178356870000,9.098869873046874,9.789852142333984,-0.04369897022843361,-0.01553358044475317
1685476178376870000,9.118869873046876,9.787832260131836,-0.024918852373957634,-0.014001291245222092
1685476178396870000,9.138869873046875,9.79219913482666,-0.045863326638936996,-0.005420472472906113
1685476178416870000,9.158869873046875,9.796642303466797,-0.040557775646448135,-0.015677232295274734
1685476178436870000,9.178869873046875,9.787822723388672,-0.037809234112501144,-0.03019567020237446
1685476178456870000,9.198869873046876,9.78969955444336,-0.04678269848227501,-0.013656526803970337
1685476178476870000,9.218869873046875,9.776042938232422,-0.035482071340084076,-0.017860744148492813
1685476178496870000,9.238869873046875,9.776789665222168,-0.04031835496425629,-0.007010222412645817
1685476178516870000,9.258869873046875,9.795196533203125,-0.046763546764850616,0.0036391867324709892
1685476178536870000,9.278869873046874,9.773102760314941,-0.03373908996582031,-0.01289038173854351
1685476178556870000,9.298869873046876,9.786443710327148,-0.04083550348877907,-0.011827356182038784
1685476178576870000,9.318869873046875,9.78858757019043,-0.0368419773876667,-0.012909535318613052
1685476178596870000,9.338869873046875,9.77566909790039,-0.03759854659438133,-0.021950040012598038
1685476178616870000,9.358869873046874,9.791796684265137,-0.05177221819758415,-0.01219127420336008
1685476178636870000,9.378869873046876,9.796594619750977,-0.023472754284739494,-0.014958972111344337
1685476178656870000,9.398869873046875,9.79503345489502,-0.04296155646443367,-0.013129801489412785
1685476178676870000,9.418869873046875,9.797571182250977,-0.030109480023384094,-0.004759673029184341
1685476178696870000,9.438869873046874,9.777613639831543,-0.04422569274902344,-0.017640478909015656
1685476178716870000,9.458869873046876,9.79836654663086,-0.04142926633358002,-0.005880159325897694
1685476178736870000,9.478869873046875,9.784919738769531,-0.0270161721855402,-0.017496826127171516
1685476178756870000,9.498869873046875,9.789249420166016,-0.0354246087372303,-0.008973468095064163
1685476178776870000,9.518869873046874,9.779173851013184,-0.03458184748888016,-0.016912641003727913
1685476178796870000,9.538869873046876,9.785408973693848,-0.0372154675424099,-0.015495273284614086
1685476178816870000,9.558869873046875,9.785140991210938,-0.04653370380401611,-0.021059399470686913
1685476178836870000,9.578869873046875,9.793635368347168,-0.049224790185689926,-0.01782243698835373
1685476178856870000,9.598869873046874,9.77615737915039,-0.047146622091531754,-0.0101322615519166
1685476178876870000,9.618869873046876,9.803201675415039,-0.03714843466877937,-0.02137543261051178
1685476178896870000,9.638869873046875,9.788119316101074,-0.020819978788495064,-0.0056503163650631905
1685476178916870000,9.658869873046875,9.794851303100586,-0.04848737269639969,-0.02163400687277317
1685476178936870000,9.678869873046875,9.804036140441895,-0.0432392843067646,-0.00226012640632689
1685476178956870000,9.698869873046876,9.797274589538574,-0.04218583181500435,-0.014777013100683689
1685476178976870000,9.718869873046875,9.79628849029541,-0.0415920726954937,-0.016338031738996506
1685476178996870000,9.738869873046875,9.780083656311035,-0.04030878096818924,-0.007249642629176378
1685476179016870000,9.758869873046875,9.790465354919434,-0.05019204318523407,-0.0016759412828832865
1685476179036870000,9.778869873046874,9.791911125183105,-0.03736870363354683,-0.014307749457657337
1685476179056870000,9.798869873046876,9.795924186706543,-0.037263356149196625,-0.01219127420336008
1685476179076870000,9.818869873046875,9.78477668762207,-0.0325898751616478,-0.01801397278904915
1685476179096870000,9.838869873046875,9.790695190429688,-0.03639186546206474,-0.019919758662581444
1685476179116870000,9.858869873046874,9.795263290405273,-0.05028781294822693,-0.02284068427979946
1685476179136870000,9.878869873046876,9.787276268005371,-0.03474465385079384,-0.011654973961412907
1685476179156870000,9.898869873046875,9.792888641357422,-0.022687455639243126,-0.007364564575254917
1685476179176870000,9.918869873046875,9.79858684539795,-0.041084498167037964,-0.0015705963596701622
1685476179196870000,9.938869873046874,9.801765441894531,-0.033729515969753265,-0.02526361681520939
1685476179216870000,9.958869873046876,9.790657043457031,-0.037665579468011856,0.0006607996765524149
1685476179236870000,9.978869873046875,9.788511276245117,-0.0303297471255064,-0.012804190628230572
1685476179256870000,9.998869873046875,9.803949356079102,-0.04952166602015495,-0.020111294463276863
1685476179276870000,10.018869873046874,9.784575462341309,-0.04637089744210243,-0.00913627352565527
1685476179296870000,10.038869873046876,9.783072471618652,-0.04929182305932045,-0.0051810527220368385
1685476179316870000,10.058869873046875,9.793089866638184,-0.03843172639608383,-0.02398032322525978
1685476179336870000,10.078869873046875,9.803145408630371,-0.033643320202827454,-0.01407790556550026
1685476179356870000,10.098869873046874,9.778005599975586,-0.031526848673820496,-0.009097966365516186
1685476179376871400,10.118871337890624,9.787946701049805,-0.03407428041100502,-0.027715278789401054
1685476179396871400,10.138871337890626,9.798816680908203,-0.043469127267599106,-0.010515334084630013
1685476179416871400,10.158871337890625,9.782315254211426,-0.04532702639698982,0.001915361382998526
1685476179436870000,10.178869873046875,9.796154022216797,-0.04706043004989624,0.006119579542428255
1685476179456870000,10.198869873046876,9.79540729522705,-0.04887044429779053,-0.020743364468216896
1685476179476870000,10.218869873046875,9.794861793518066,-0.03834553435444832,-0.0030262707732617855
1685476179496871400,10.238871337890625,9.80058765411377,-0.02843353897333145,-0.012143390253186226
1685476179516870000,10.258869873046875,9.799582481384277,-0.035108573734760284,-0.009184157475829124
1685476179536870000,10.278869873046874,9.785207748413086,-0.03794331103563309,-0.016318878158926964
1685476179556870000,10.298869873046876,9.79121208190918,-0.052164867520332336,-0.01123359426856041
1685476179576870000,10.318869873046875,9.793779373168945,-0.0372154675424099,-0.00833182130008936
1685476179596870000,10.338869873046875,9.7952241897583,-0.03967671096324921,-0.008216899819672108
1685476179616870000,10.358869873046874,9.78921127319336,-0.03509899601340294,-0.0019728222396224737
1685476179636870000,10.378869873046876,9.794650077819824,-0.03477338328957558,0.0011683704797178507
1685476179656870000,10.398869873046875,9.792438507080078,-0.041084498167037964,-0.023376986384391785
1685476179676870000,10.418869873046875,9.78184700012207,-0.049224790185689926,-0.007479486055672169
1685476179696870000,10.438869873046874,9.807214736938477,-0.038517918437719345,-0.013273454271256924
1685476179716870000,10.458869873046876,9.787631034851074,-0.036363136023283005,-0.024420855566859245
1685476179736870000,10.478869873046875,9.786471366882324,-0.050057969987392426,-0.024095244705677032
1685476179756870000,10.498869873046875,9.798423767089844,-0.04847779497504234,-0.01219127420336008
1685476179776870000,10.518869873046874,9.80069351196289,-0.04865017533302307,-0.001426944276317954
1685476179796870000,10.538869873046876,9.803068161010742,-0.047663770616054535,-0.021691467612981796
1685476179816870000,10.558869873046875,9.77574634552002,-0.04720408096909523,-0.008829816244542599
1685476179836870000,10.578869873046875,9.779422760009766,-0.03871902823448181,-0.012976572848856449
1685476179856870000,10.598869873046874,9.788463592529297,-0.0380294993519783,-0.010017340071499348
1685476179876870000,10.618869873046876,9.792936325073242,-0.04506845027208328,-0.027427975088357925
1685476179896870000,10.638869873046875,9.791508674621582,-0.036880284547805786,-0.01713290810585022
1685476179916870000,10.658869873046875,9.787382125854492,-0.03736870363354683,-0.01123359426856041
1685476179936870000,10.678869873046875,9.792763710021973,-0.04448426887392998,-0.02329079434275627
1685476179956870000,10.698869873046876,9.792562484741211,-0.034821268171072006,-0.013522451743483543
1685476179976870000,10.718869873046875,9.796891212463379,-0.02852930873632431,-0.00045968673657625914
1685476179996870000,10.738869873046875,9.784489631652832,-0.03315490484237671,-0.03192907199263573
1685476180016870000,10.758869873046875,9.78925895690918,-0.04262636601924896,-0.020082563161849976
1685476180036870000,10.778869873046874,9.784374237060547,-0.05016331374645233,-0.026508601382374763
1685476180056870000,10.798869873046876,9.779461860656738,-0.041055772453546524,-0.014211980625987053
1685476180076870000,10.818869873046875,9.79240894317627,-0.03249410539865494,-0.010199299082159996
1685476180096870000,10.838869873046875,9.79987907409668,-0.02893153391778469,-0.007144297938793898
1685476180116870000,10.858869873046874,9.796575546264648,-0.04120900109410286,-0.002576161175966263
1685476180136871400,10.878871337890626,9.79089641571045,-0.05572744086384773,-0.01317768543958664
1685476180156870000,10.898869873046875,9.804180145263672,-0.02756205014884472,0.0020494365599006414
1685476180176870000,10.918869873046875,9.785064697265625,-0.03530968725681305,-0.008475474081933498
1685476180196870000,10.938869873046874,9.78108024597168,-0.042099643498659134,-0.018310854211449623
1685476180216870000,10.958869873046876,9.787870407104492,-0.0405290462076664,-0.004769249819219112
1685476180236870000,10.978869873046875,9.797696113586426,-0.043028589338064194,-0.017113754525780678
1685476180256870000,10.998869873046875,9.790953636169434,-0.045058876276016235,-0.020915746688842773
1685476180276870000,11.018869873046874,9.795148849487305,-0.03682282194495201,0.001120486413128674
1685476180296870000,11.038869873046876,9.78122329711914,-0.03296336904168129,-0.01229662075638771
1685476180316870000,11.058869873046875,9.778599739074707,-0.023396139964461327,-0.00629196222871542
1685476180336870000,11.078869873046875,9.809657096862793,-0.04843948781490326,0.0019632454495877028
1685476180356870000,11.098869873046874,9.786702156066895,-0.036008793860673904,-0.016318878158926964
1685476180376870000,11.118869873046876,9.801555633544922,-0.05591897666454315,-0.017707515507936478
1685476180396871400,11.138871337890626,9.800463676452637,-0.03895844891667366,-0.005755661055445671
1685476180416870000,11.158869873046875,9.790350914001465,-0.03727293387055397,-0.007929596118628979
1685476180436870000,11.178869873046875,9.800597190856934,-0.056761734187603,-0.028443116694688797
1685476180456871400,11.198871337890624,9.784929275512695,-0.05290227755904198,-0.023137565702199936
1685476180476870000,11.218869873046875,9.787095069885254,-0.037742193788290024,-0.0051714759320020676
1685476180496870000,11.238869873046875,9.793242454528809,-0.035913024097681046,-0.012210427783429623
1685476180516870000,11.258869873046875,9.792381286621094,-0.058207832276821136,-0.01399171445518732
1685476180536870000,11.278869873046874,9.792716026306152,-0.0406343899667263,-0.0035529951564967632
1685476180556870000,11.298869873046876,9.788780212402344,-0.029937097802758217,-0.021203050389885902
1685476180576870000,11.318869873046875,9.779595375061035,-0.05262455344200134,-0.011425131000578403
1685476180596870000,11.338869873046875,9.802053451538086,-0.026690561324357986,-0.013867216184735298
1685476180616870000,11.358869873046874,9.798864364624023,-0.03592260181903839,-0.013101071119308472
1685476180636870000,11.378869873046876,9.797178268432617,-0.03822103515267372,-0.01517923828214407
1685476180656870000,11.398869873046875,9.789623260498047,-0.04441722854971886,-0.018454505130648613
1685476180676870000,11.418869873046875,9.785417556762695,-0.03865199163556099,-0.028098350390791893
1685476180696870000,11.438869873046874,9.800750732421875,-0.04485776275396347,-0.012737153097987175
1685476180716870000,11.458869873046876,9.794439315795898,-0.037071820348501205,-0.0053917421028018
1685476180736870000,11.478869873046875,9.801239013671875,-0.04549941048026085,-0.01138682384043932
1685476180756870000,11.498869873046875,9.79589557647705,-0.0492822490632534,-0.021289242431521416
1685476180776870000,11.518869873046874,9.813803672790527,-0.042453981935977936,-0.029563602060079575
1685476180796870000,11.538869873046876,9.800847053527832,-0.036296095699071884,-0.0057460842654109
1685476180816870000,11.558869873046875,9.79081916809082,-0.038019925355911255,-0.010601525194942951
1685476180836870000,11.578869873046875,9.802091598510742,-0.05436753109097481,-0.017113754525780678
1685476180856870000,11.598869873046874,9.802005767822266,-0.04157291725277901,-0.021509507670998573
1685476180876870000,11.618869873046876,9.799630165100098,-0.038307227194309235,0.005832275375723839
1685476180896870000,11.638869873046875,9.785840034484863,-0.03893929719924927,-0.010160991922020912
1685476180916871400,11.658871337890625,9.78974723815918,-0.033710360527038574,-0.01801397278904915
1685476180936870000,11.678869873046875,9.795513153076172,-0.04324885830283165,-0.0025474305730313063
1685476180956870000,11.698869873046876,9.795090675354004,-0.04434061422944069,-0.009739612229168415
1685476180976870000,11.718869873046875,9.793779373168945,-0.03495534509420395,-0.012966996058821678
1685476180996870000,11.738869873046875,9.779078483581543,-0.050795383751392365,-0.012938265688717365
1685476181016870000,11.758869873046875,9.791653633117676,-0.05611051246523857,-0.016175225377082825
1685476181036870000,11.778869873046874,9.785571098327637,-0.03490746021270752,-0.007326257415115833
1685476181056870000,11.798869873046876,9.786768913269043,-0.0402800478041172,-0.004865017719566822
1685476181076870000,11.818869873046875,9.792552947998047,-0.030061595141887665,-0.002269703196361661
1685476181096870000,11.838869873046875,9.78823471069336,-0.035156454890966415,-0.01571553945541382
1685476181116870000,11.858869873046874,9.794172286987305,-0.04095042496919632,-0.002279279986396432
1685476181136870000,11.878869873046876,9.794075965881348,-0.04023216664791107,-0.012143390253186226
1685476181156870000,11.898869873046875,9.797274589538574,-0.054731450974941254,-0.015150507912039757
1685476181176870000,11.918869873046875,9.789804458618164,-0.040107667446136475,-0.022850262001156807
1685476181196870000,11.938869873046874,9.79116439819336,-0.04872678965330124,0.00011492168414406478
1685476181216870000,11.958869873046876,9.786893844604492,-0.03671747446060181,-0.0201400239020586
1685476181236870000,11.978869873046875,9.783082008361816,-0.035041533410549164,-0.022955605760216713
1685476181256870000,11.998869873046875,9.789565086364746,-0.03908294811844826,0.004951209295541048
1685476181276870000,12.018869873046874,9.7821044921875,-0.03787627071142197,-0.013560758903622627
1685476181296870000,12.038869873046876,9.797858238220215,-0.029965827241539955,-0.01229662075638771
1685476181316870000,12.058869873046875,9.794678688049316,-0.03134488686919212,-0.00868616346269846
1685476181336870000,12.078869873046875,9.784250259399414,-0.02274491637945175,-0.007814674638211727
1685476181356870000,12.098869873046874,9.788607597351074,-0.04458003491163254,-0.02310883440077305
1685476181376870000,12.118869873046876,9.789661407470703,-0.03674620762467384,0.012124236673116684
1685476181396870000,12.138869873046875,9.783407211303711,-0.03588429465889931,-0.03489788621664047
1685476181416870000,12.158869873046875,9.783771514892578,-0.044350191950798035,-0.007144297938793898
1685476181436870000,12.178869873046875,9.78663444519043,-0.027140671387314796,-0.017659632489085197
1685476181456870000,12.198869873046876,9.791576385498047,-0.033777397125959396,-0.012421119026839733
1685476181476870000,12.218869873046875,9.775285720825195,-0.039274487644433975,-0.018914194777607918
1685476181496870000,12.238869873046875,9.799639701843262,-0.05960604548454285,-0.014173673465847969
1685476181516870000,12.258869873046875,9.795540809631348,-0.02611595205962658,0.00020111293997615576
1685476181536870000,12.278869873046874,9.787985801696777,-0.032972946763038635,0.004118026699870825
1685476181556870000,12.298869873046876,9.795971870422363,-0.02912306971848011,-0.008609549142420292
1685476181576870000,12.318869873046875,9.79094409942627,-0.03918829187750816,-0.006684611551463604
1685476181596870000,12.338869873046875,9.786816596984863,-0.04103661701083183,-0.02383667230606079
1685476181616870000,12.358869873046874,9.789661407470703,-0.03185245767235756,-0.0054587796330451965
1685476181636870000,12.378869873046876,9.789718627929688,-0.04275086522102356,-0.021385010331869125
1685476181656870000,12.398869873046875,9.794775009155273,-0.04263594374060631,-0.011808202601969242
1685476181676870000,12.418869873046875,9.78205680847168,-0.03398808836936951,-0.007345410995185375
1685476181696870000,12.438869873046874,9.781731605529785,-0.03523306921124458,0.000967257481534034
1685476181716870000,12.458869873046876,9.795022964477539,-0.04188895598053932,-0.019134460017085075
1685476181736870000,12.478869873046875,9.77491283416748,-0.027255592867732048,-0.022610841318964958
1685476181756870000,12.498869873046875,9.810749053955078,-0.03997359052300453,-0.029237991198897362
1685476181776870000,12.518869873046874,9.793434143066406,-0.04836287349462509,-0.010457873344421387
1685476181796870000,12.538869873046876,9.781482696533203,-0.041812337934970856,-0.020647596567869186
1685476181816870000,12.558869873046875,9.798192977905273,-0.04306689649820328,-0.009327810257673264
1685476181836870000,12.578869873046875,9.805606842041016,-0.05137956887483597,-0.01578257791697979
1685476181856870000,12.598869873046874,9.788003921508789,-0.041955988854169846,-0.02457408793270588
1685476181876870000,12.618869873046876,9.78695011138916,-0.03371993452310562,-0.013742717914283276
1685476181896870000,12.638869873046875,9.80118179321289,-0.03156515583395958,-0.016788143664598465
1685476181916870000,12.658869873046875,9.785840034484863,-0.03447650372982025,-0.00994072575122118
1685476181936870000,12.678869873046875,9.785781860351562,-0.03984909504652023,-0.016203956678509712
1685476181956870000,12.698869873046876,9.78685474395752,-0.049397170543670654,-0.028902802616357803
1685476181976870000,12.718869873046875,9.781923294067383,-0.040720582008361816,-0.02383667230606079
1685476181996870000,12.738869873046875,9.794851303100586,-0.028711266815662384,-0.006426037289202213
1685476182016870000,12.758869873046875,9.798452377319336,-0.04469495639204979,0.0020685901399701834
1685476182036870000,12.778869873046874,9.785025596618652,-0.030406363308429718,-0.016385916620492935
1685476182056870000,12.798869873046876,9.797351837158203,-0.035060688853263855,-0.032091882079839706
1685476182076870000,12.818869873046875,9.802896499633789,-0.04175487905740738,-0.02116474322974682
1685476182096870000,12.838869873046875,9.791893005371094,-0.03637271001935005,-0.00884896982461214
1685476182116870000,12.858869873046874,9.79023551940918,-0.033068712800741196,-0.0184832364320755
1685476182136870000,12.878869873046876,9.787142753601074,-0.04833414405584335,-0.011942277662456036
1685476182156870000,12.898869873046875,9.787208557128906,-0.0499909333884716,-0.018655620515346527
1685476182176870000,12.918869873046875,9.788483619689941,-0.02981259860098362,-0.024756046012043953
1685476182196870000,12.938869873046874,9.766983032226562,-0.03534799441695213,-0.017707515507936478
1685476182216870000,12.958869873046876,9.782793998718262,-0.051293376833200455,-0.012076352722942829
1685476182236870000,12.978869873046875,9.796632766723633,-0.04796064645051956,-0.01289038173854351
1685476182256870000,12.998869873046875,9.788799285888672,-0.03733997046947479,-0.01808101125061512
1685476182276870000,13.018869873046874,9.795062065124512,-0.02144247107207775,-0.012009315192699432
1685476182296870000,13.038869873046876,9.806170463562012,-0.044685378670692444,-0.012966996058821678
1685476182316870000,13.058869873046875,9.790579795837402,-0.027265168726444244,-0.015121777541935444
1685476182336870000,13.078869873046875,9.786883354187012,-0.036861129105091095,-0.007383718155324459
1685476182356870000,13.098869873046874,9.77502727508545,-0.030301015824079514,-0.027169400826096535
1685476182376870000,13.118869873046876,9.792064666748047,-0.047998953610658646,-0.013560758903622627
1685476182396870000,13.138869873046875,9.782755851745605,-0.04469495639204979,-0.013809755444526672
1685476182416870000,13.158869873046875,9.786548614501953,-0.0449056476354599,-0.025531766936182976
1685476182436870000,13.178869873046875,9.785801887512207,-0.03556825965642929,-0.02139458619058132
1685476182456870000,13.198869873046876,9.796910285949707,-0.027313053607940674,-0.009318233467638493
1685476182476870000,13.218869873046875,9.801200866699219,-0.04497268423438072,-0.036075834184885025
1685476182496870000,13.238869873046875,9.793835639953613,-0.039724595844745636,-0.010333375073969364
1685476182516870000,13.258869873046875,9.78418254852295,-0.041362229734659195,-0.004625597503036261
1685476182536870000,13.278869873046874,9.79300308227539,-0.04212837293744087,-0.015418658964335918
1685476182556870000,13.298869873046876,9.787832260131836,-0.04353616386651993,-0.004922478459775448
1685476182576870000,13.318869873046875,9.789173126220703,-0.03955221176147461,-0.012995726428925991
1685476182596870000,13.338869873046875,9.799294471740723,-0.03789542242884636,-0.010611101984977722
1685476182616870000,13.358869873046874,9.78427791595459,-0.04225287213921547,-0.016433799639344215
1685476182636870000,13.378869873046876,9.799420356750488,-0.03408385440707207,-0.01368525717407465
1685476182656870000,13.398869873046875,9.779452323913574,-0.030597899109125137,-0.002461239229887724
1685476182676870000,13.418869873046875,9.785284042358398,-0.032810140401124954,-0.014269442297518253
1685476182696870000,13.438869873046874,9.796632766723633,-0.05080495774745941,-0.011224017478525639
1685476182716870000,13.458869873046876,9.795022964477539,-0.04773080348968506,0.0031794998794794083
1685476182736870000,13.478869873046875,9.788980484008789,-0.040414124727249146,-0.015102623961865902
1685476182756870000,13.498869873046875,9.78538990020752,-0.03332728520035744,-0.01829170063138008
1685476182776870000,13.518869873046874,9.792820930480957,-0.029994558542966843,-0.012440272606909275
1685476182796870000,13.538869873046876,9.783052444458008,-0.041055772453546524,-0.023798365145921707
1685476182816870000,13.558869873046875,9.793319702148438,-0.030233977362513542,-0.02580949477851391
1685476182836870000,13.578869873046875,9.802062034606934,-0.053754616528749466,-0.021126436069607735
1685476182856870000,13.598869873046874,9.792399406433105,-0.041649531573057175,0.0004788403457496315
1685476182876870000,13.618869873046876,9.78166389465332,-0.046696510165929794,-0.004548983182758093
1685476182896870000,13.638869873046875,9.786702156066895,-0.042951975017786026,-0.016807297244668007
1685476182916870000,13.658869873046875,9.796201705932617,-0.03905421867966652,-0.0021930888760834932
1685476182936870000,13.678869873046875,9.795665740966797,-0.037311241030693054,-0.0202645231038332
1685476182956870000,13.698869873046876,9.786222457885742,-0.038996756076812744,-0.008877700194716454
1685476182976870000,13.718869873046875,9.793261528015137,-0.037761349231004715,-0.004663905128836632
1685476182996870000,13.738869873046875,9.794698715209961,-0.04601655527949333,-0.0020207061897963285
1685476183016870000,13.758869873046875,9.782689094543457,-0.04684973880648613,-0.0012449849164113402
1685476183036870000,13.778869873046874,9.788780212402344,-0.041955988854169846,-0.0026431987062096596
1685476183056870000,13.798869873046876,9.773619651794434,-0.05266286060214043,-0.0011779472697526217
1685476183076870000,13.818869873046875,9.794468879699707,-0.045767560601234436,-0.016366763040423393
1685476183096870000,13.838869873046875,9.79503345489502,-0.03984909504652023,-0.006646303925663233
1685476183116870000,13.858869873046874,9.785734176635742,-0.03530968725681305,-0.013809755444526672
1685476183136870000,13.878869873046876,9.809188842773438,-0.03778050094842911,-0.01964203082025051
1685476183156870000,13.898869873046875,9.79939079284668,-0.03812526538968086,-0.016462530940771103
1685476183176870000,13.918869873046875,9.78402042388916,-0.04037581756711006,-0.016433799639344215
1685476183196870000,13.938869873046874,9.788702964782715,-0.036956898868083954,-0.007967903278768063
1685476183216870000,13.958869873046876,9.7811279296875,-0.039896976202726364,-0.027600357308983803
1685476183236870000,13.978869873046875,9.794803619384766,-0.042549751698970795,-0.01706586964428425
1685476183256870000,13.998869873046875,9.792141914367676,-0.03741658478975296,-0.00914585031569004
1685476183276870000,14.018869873046874,9.797666549682617,-0.042262446135282516,-0.014911088161170483
1685476183296870000,14.038869873046876,9.794305801391602,-0.04248271510004997,-0.0060429647564888
1685476183316870000,14.058869873046875,9.800291061401367,-0.043047744780778885,-0.013053187169134617
1685476183336870000,14.078869873046875,9.791135787963867,-0.05123591795563698,-0.006636727135628462
1685476183356870000,14.098869873046874,9.791518211364746,-0.038565799593925476,-0.018148047849535942
1685476183376870000,14.118869873046876,9.782631874084473,-0.04379473999142647,-0.0006129156099632382
1685476183396870000,14.138869873046875,9.791452407836914,-0.039398983120918274,-0.01992933452129364
1685476183416870000,14.158869873046875,9.781309127807617,-0.032522834837436676,0.00012449848873075098
1685476183436870000,14.178869873046875,9.790685653686523,-0.034917037934064865,-0.013627796433866024
1685476183456870000,14.198869873046876,9.795770645141602,-0.029870059341192245,-0.014480131678283215
1685476183476870000,14.218869873046875,9.7843656539917,-0.053448159247636795,-0.010505757294595242
1685476183496870000,14.238869873046875,9.791719436645508,-0.03691859170794487,-0.01698925532400608
1685476183516870000,14.258869873046875,9.793558120727539,-0.04298070818185806,-0.008810662664473057
1685476183536870000,14.278869873046874,9.786031723022461,-0.033901896327733994,-0.012507310137152672
1685476183556870000,14.298869873046876,9.789125442504883,-0.0499909333884716,-0.015840038657188416
1685476183576870000,14.318869873046875,9.801315307617188,-0.0382784940302372,-0.012143390253186226
1685476183596870000,14.338869873046875,9.784479141235352,-0.03218764811754227,-0.018358737230300903
1685476183616870000,14.358869873046874,9.788300514221191,-0.030272286385297775,-0.015887921676039696
1685476183636870000,14.378869873046876,9.790321350097656,-0.03701435774564743,-0.01168370433151722
1685476183656870000,14.398869873046875,9.794957160949707,-0.047951072454452515,-0.011176133528351784
1685476183676870000,14.418869873046875,9.800856590270996,-0.04943547770380974,-0.008130708709359169
1685476183696870000,14.438869873046874,9.802703857421875,-0.044110771268606186,-0.01058237161487341
1685476183716870000,14.458869873046876,9.786194801330566,-0.038163572549819946,-0.011540052480995655
1685476183736870000,14.478869873046875,9.785417556762695,-0.035960908979177475,-0.01580173149704933
1685476183756870000,14.498869873046875,9.792083740234375,-0.03174711391329765,-0.02372175082564354
1685476183776870000,14.518869873046874,9.795943260192871,-0.046696510165929794,-0.014738705940544605
1685476183796870000,14.538869873046876,9.79841423034668,-0.03799119219183922,-0.015504850074648857
1685476183816870000,14.558869873046875,9.78886604309082,-0.030674513429403305,0.00031603462412022054
1685476183836870000,14.578869873046875,9.78122329711914,-0.0409887321293354,-0.046907201409339905
1685476183856870000,14.598869873046874,9.791853904724121,-0.044541727751493454,-0.013800178654491901
1685476183876870000,14.618869873046876,9.793596267700195,-0.04291366785764694,-0.006387730129063129
1685476183896870000,14.638869873046875,9.793807983398438,-0.04315309226512909,-0.017161637544631958
1685476183916870000,14.658869873046875,9.790446281433105,-0.03573106601834297,-0.006138733588159084
1685476183936870000,14.678869873046875,9.791709899902344,-0.05227978900074959,-0.012315774336457253
1685476183956870000,14.698869873046876,9.789833068847656,-0.045010991394519806,-0.02087743952870369
1685476183976870000,14.718869873046875,9.792160034179688,-0.03653552010655403,-0.017266983166337013
1685476183996870000,14.738869873046875,9.794343948364258,-0.029611486941576004,-0.015217546373605728
1685476184016870000,14.758869873046875,9.781060218811035,-0.034208353608846664,0.0008331821882165968
1685476184036870000,14.778869873046874,9.807167053222656,-0.04601655527949333,-0.011875240132212639
1685476184056870000,14.798869873046876,9.785706520080566,-0.04111323133111,-0.004989516455680132
1685476184076870000,14.818869873046875,9.794526100158691,-0.02452620305120945,-0.012507310137152672
1685476184096870000,14.838869873046875,9.775429725646973,-0.0396958664059639,-0.022955605760216713
1685476184116870000,14.858869873046874,9.777105331420898,-0.03652593865990639,-0.016127342358231544
1685476184136870000,14.878869873046876,9.790617942810059,-0.03002328798174858,-0.007220912259072065
1685476184156870000,14.898869873046875,9.79589557647705,-0.046265553683042526,-0.014748282730579376
1685476184176870000,14.918869873046875,9.780352592468262,-0.046265553683042526,-0.008925584144890308
1685476184196870000,14.938869873046874,9.787918090820312,-0.050249505788087845,-0.006646303925663233
1685476184216870000,14.958869873046876,9.795483589172363,-0.0405290462076664,-0.015504850074648857
1685476184236870000,14.978869873046875,9.78184700012207,-0.03715800866484642,-0.0071826050989329815
1685476184256870000,14.998869873046875,9.776885986328125,-0.04837245121598244,-0.01649126037955284
1685476184276870000,15.018869873046874,9.803297996520996,-0.03642059862613678,-0.0018387469463050365
1685476184296870000,15.038869873046876,9.793530464172363,-0.034610580652952194,-0.009308655746281147
1685476184316870000,15.058869873046875,9.78615665435791,-0.04095042496919632,-0.011271901428699493
1685476184336870000,15.078869873046875,9.79628849029541,-0.03258029371500015,-0.004979939665645361
1685476184356870000,15.098869873046874,9.792879104614258,-0.031670499593019485,-0.020226215943694115
1685476184376870000,15.118869873046876,9.773275375366211,-0.044043734669685364,-0.016673222184181213
1685476184396870000,15.138869873046875,9.801383018493652,-0.046696510165929794,-0.01334049180150032
1685476184416871400,15.158871337890625,9.784863471984863,-0.04482903331518173,-0.008121131919324398
1685476184436870000,15.178869873046875,9.796910285949707,-0.04843948781490326,-0.002576161175966263
1685476184456870000,15.198869873046876,9.791796684265137,-0.035223495215177536,-0.014757859520614147
1685476184476870000,15.218869873046875,9.801976203918457,-0.04577713832259178,-0.008820239454507828
1685476184496870000,15.238869873046875,9.798701286315918,-0.04998135194182396,-0.02023579180240631
1685476184516870000,15.258869873046875,9.787343978881836,-0.0439479686319828,-0.015389928594231606
1685476184536870000,15.278869873046874,9.78205680847168,-0.03868072107434273,-0.009260771796107292
1685476184556870000,15.298869873046876,9.803499221801758,-0.042406100779771805,-0.06415502727031708
1685476184576870000,15.318869873046875,9.771330833435059,-0.05033569782972336,-1.6380935907363892
1685476184596870000,15.338869873046875,9.864187240600586,-0.05900270864367485,-0.3511240482330322
1685476184616870000,15.358869873046874,9.75473403930664,-0.04139095917344093,0.39120298624038696
1685476184636870000,15.378869873046876,9.818305015563965,-0.04731900244951248,0.5341655015945435
1685476184656870000,15.398869873046875,9.800779342651367,-0.05091987922787666,0.5362054109573364
1685476184676870000,15.418869873046875,9.787266731262207,-0.048573561012744904,0.11542925238609314
1685476184696870000,15.438869873046874,9.775439262390137,-0.04911944270133972,-0.13194924592971802
1685476184716870000,15.458869873046876,9.770612716674805,-0.033470939844846725,-0.37038299441337585
1685476184736870000,15.478869873046875,9.75960922241211,-0.04445553570985794,-0.17165467143058777
1685476184756870000,15.498869873046875,9.757415771484375,-0.06130113825201988,-0.042425256222486496
1685476184776870000,15.518869873046874,9.787592887878418,-0.0505942702293396,0.04402458295226097
1685476184796870000,15.538869873046876,9.756458282470703,-0.043804313987493515,0.03769431263208389
1685476184816870000,15.558869873046875,9.798663139343262,-0.04268382489681244,-0.1575097292661667
1685476184836870000,15.578869873046875,9.788962364196777,-0.038498762995004654,-0.1632653921842575
1685476184856870000,15.598869873046874,9.826952934265137,-0.05600516498088837,-0.11048761755228043
1685476184876870000,15.618869873046876,9.776023864746094,-0.07465120404958725,-0.2530096471309662
1685476184896870000,15.638869873046875,9.757482528686523,-0.07208462804555893,-0.17298585176467896
1685476184916870000,15.658869873046875,9.777776718139648,-0.05712565407156944,-0.10744219273328781
1685476184936870000,15.678869873046875,9.792581558227539,-0.05122634023427963,-0.08259996026754379
1685476184956870000,15.698869873046876,9.757272720336914,-0.026096798479557037,-0.011827356182038784
1685476184976870000,15.718869873046875,9.782066345214844,-0.05028781294822693,-0.19015707075595856
1685476184996870000,15.738869873046875,9.833215713500977,-0.06762183457612991,-0.23979367315769196
1685476185016870000,15.758869873046875,9.78369426727295,-0.07743805646896362,-0.35006099939346313
1685476185036870000,15.778869873046874,9.846528053283691,-0.08896853774785995,0.012258312664926052
1685476185056870000,15.798869873046876,9.722853660583496,-0.07596323639154434,0.043047744780778885
1685476185076870000,15.818869873046875,9.822068214416504,-0.0462176688015461,0.10869675129652023
1685476185096870000,15.838869873046875,9.815881729125977,-0.03085647150874138,0.14890019595623016
1685476185116870000,15.858869873046874,9.809589385986328,-0.028749573975801468,0.1628057062625885
1685476185136870000,15.878869873046876,9.822422981262207,-0.028663383796811104,0.17719008028507233
1685476185156870000,15.898869873046875,9.783167839050293,-0.06276638805866241,0.016385916620492935
1685476185176871400,15.918871337890625,9.78002643585205,-0.042406100779771805,-0.18415242433547974
1685476185196870000,15.938869873046874,9.830936431884766,-0.045604754239320755,-0.12277466803789139
1685476185216870000,15.958869873046876,9.812329292297363,-0.06746860593557358,-0.11636777967214584
1685476185236870000,15.978869873046875,9.800750732421875,-0.05160941183567047,-0.025866955518722534
1685476185256870000,15.998869873046875,9.796919822692871,-0.0679953321814537,-0.21461623907089233
1685476185276870000,16.018869873046874,9.833044052124023,-0.05844724923372269,-0.041955988854169846
1685476185296870000,16.038869873046874,9.797772407531738,-0.04635174572467804,-0.04753926768898964
1685476185316870000,16.058869873046874,9.837363243103027,-0.0554497092962265,-0.13228443264961243
1685476185336870000,16.078869873046877,9.824128150939941,-0.07629841566085815,-0.15744270384311676
1685476185356870000,16.098869873046876,9.744985580444336,-0.09557653218507767,-0.061128757894039154
1685476185376870000,16.118869873046876,9.840389251708984,-0.10249099135398865,-0.04026089608669281
1685476185396870000,16.138869873046875,9.816906929016113,-0.0847260132431984,0.07472781836986542
1685476185416870000,16.158869873046875,9.672210693359375,-0.08229350298643112,-0.03478296101093292
1685476185436871400,16.178871337890627,9.829011917114258,-0.08523358404636383,-0.10952036082744598
1685476185456871400,16.198871337890626,9.800013542175293,-0.0899166390299797,-0.23533086478710175
1685476185476870000,16.218869873046874,9.846536636352539,-0.09400593489408493,-0.19196708500385284
1685476185496871400,16.238871337890625,9.712031364440918,-0.09127654135227203,-0.14368082582950592
1685476185516870000,16.258869873046876,9.681519508361816,-0.09117120504379272,-0.169078528881073
1685476185536870000,16.278869873046876,9.7769136428833,-0.09356539696455002,-0.22042936086654663
1685476185556870000,16.298869873046876,9.738712310791016,-0.09189903736114502,-0.25829604268074036
1685476185576870000,16.318869873046875,9.816198348999023,-0.10419565439224243,-0.3011331260204315
1685476185596870000,16.338869873046875,9.760231018066406,-0.10007762908935547,-0.37589922547340393
1685476185616870000,16.358869873046874,9.803115844726562,-0.10123642534017563,-0.3284078538417816
1685476185636870000,16.378869873046874,9.811017990112305,-0.15160085260868073,-0.19209158420562744
1685476185656870000,16.398869873046873,9.722451210021973,-0.15581464767456055,-0.11407892405986786
1685476185676870000,16.418869873046877,9.76094913482666,-0.12605950236320496,0.03998316824436188
1685476185696870000,16.438869873046876,9.751315116882324,-0.18690095841884613,0.07042783498764038
1685476185716870000,16.458869873046876,9.737314224243164,-0.12036130577325821,0.18575173616409302
1685476185736870000,16.478869873046875,9.833944320678711,-0.09886137396097183,0.0005554548115469515
1685476185756870000,16.498869873046875,9.581729888916016,-0.1624322235584259,0.0296210628002882
1685476185776870000,16.518869873046874,9.889566421508789,-0.17667292058467865,0.0392170213162899
1685476185796870000,16.538869873046874,9.747694969177246,-0.14560577273368835,0.04813303053379059
1685476185816870000,16.558869873046874,9.90829849243164,-0.11779472231864929,0.044848185032606125
1685476185836870000,16.578869873046877,9.722134590148926,-0.12315773963928223,0.11510363966226578
1685476185856870000,16.598869873046876,9.659626960754395,-0.13287818431854248,-0.04784572497010231
1685476185876870000,16.618869873046876,9.704139709472656,-0.10261548310518265,0.13102029263973236
1685476185896870000,16.638869873046875,9.829663276672363,-0.09098923951387405,0.17040011286735535
1685476185916870000,16.658869873046875,9.762749671936035,-0.1194419339299202,0.14087483286857605
1685476185936870000,16.678869873046875,9.775343894958496,-0.09757808595895767,0.08896853774785995
1685476185956870000,16.698869873046874,9.808239936828613,-0.11308293044567108,-0.1255902498960495
1685476185976870000,16.718869873046874,9.855031967163086,-0.0913531556725502,0.09096051007509232
1685476185996870000,16.738869873046873,9.881473541259766,-0.07632714509963989,-0.07892246544361115
1685476186016870000,16.758869873046876,9.747705459594727,-0.0802057534456253,-0.028692113235592842
1685476186036870000,16.778869873046876,9.72089958190918,-0.08426631987094879,-0.12043792009353638
1685476186056870000,16.798869873046876,9.630973815917969,-0.08988790959119797,-0.016031574457883835
1685476186076870000,16.818869873046875,9.82784366607666,-0.08608591556549072,-0.10570879280567169
1685476186096870000,16.838869873046875,9.77747917175293,-0.07978437840938568,-0.030080748721957207
1685476186116870000,16.858869873046874,9.680341720581055,-0.09180326759815216,-0.10694419592618942
1685476186136870000,16.878869873046874,9.66987419128418,-0.11207737028598785,-0.26960626244544983
1685476186156870000,16.898869873046873,9.86207103729248,-0.0811634361743927,-0.20426371693611145
1685476186176870000,16.918869873046877,9.645980834960938,-0.11234551668167114,-0.11584105342626572
1685476186196870000,16.938869873046876,9.749571800231934,-0.09114246815443039,0.050441041588783264
1685476186216870000,16.958869873046876,9.66235637664795,-0.1286931335926056,0.1892089694738388
1685476186236870000,16.978869873046875,9.843271255493164,-0.11357135325670242,0.2733316421508789
1685476186256870000,16.998869873046875,9.943100929260254,-0.08540596067905426,0.4316362738609314
1685476186276870000,17.018869873046874,9.879596710205078,-0.09343133121728897,0.12467087060213089
1685476186296870000,17.038869873046874,9.629537582397461,-0.10009678453207016,-0.0701405331492424
1685476186316870000,17.058869873046874,9.789450645446777,-0.07190266251564026,-0.09427408874034882
1685476186336870000,17.078869873046877,9.816274642944336,-0.059108052402734756,-0.16653110086917877
1685476186356870000,17.098869873046876,9.734210968017578,-0.020858285948634148,-0.29728323221206665
1685476186376870000,17.118869873046876,9.812128067016602,-0.042406100779771805,-0.3475710451602936
1685476186396870000,17.138869873046875,9.729279518127441,-0.08627744764089584,-0.27523744106292725
1685476186416870000,17.158869873046875,9.872567176818848,-0.0883939266204834,-0.10599610209465027
1685476186436870000,17.178869873046875,9.84218978881836,-0.11253705620765686,0.05547844246029854
1685476186456870000,17.198869873046874,9.897122383117676,-0.08834604918956757,0.0753694698214531
1685476186476870000,17.218869873046874,9.78189468383789,-0.0849367007613182,0.09032844752073288
1685476186496870000,17.238869873046873,9.796843528747559,-0.09933064132928848,-0.015954960137605667
1685476186516870000,17.258869873046876,9.751086235046387,-0.08552087843418121,0.08542511612176895
1685476186536870000,17.278869873046876,9.800167083740234,-0.041860222816467285,0.17667292058467865
1685476186556870000,17.298869873046876,9.75059700012207,-0.08642110228538513,-0.03928406164050102
1685476186576870000,17.318869873046875,9.678503036499023,-0.11276689916849136,-0.15049950778484344
1685476186596870000,17.338869873046875,9.841175079345703,-0.110899418592453,-0.25948357582092285
1685476186616870000,17.358869873046874,9.722249984741211,-0.10277829319238663,-0.2387210726737976
1685476186636870000,17.378869873046874,9.759024620056152,-0.0638677254319191,-0.022898145020008087
1685476186656870000,17.398869873046873,9.827508926391602,-0.13020627200603485,-0.07616434246301651
1685476186676870000,17.418869873046877,9.909390449523926,-0.13931381702423096,-0.03019567020237446
1685476186696870000,17.438869873046876,9.850923538208008,-0.12007400393486023,-0.038115691393613815
1685476186716870000,17.458869873046876,9.776732444763184,-0.10246225446462631,0.06844543665647507
1685476186736870000,17.478869873046875,9.834949493408203,-0.10467450320720673,0.11029607802629471
1685476186756870000,17.498869873046875,9.8611421585083,-0.036267369985580444,0.1399458795785904
1685476186776870000,17.518869873046874,9.9757661819458,0.06449979543685913,0.2443426549434662
1685476186796870000,17.538869873046874,9.87614917755127,0.029611486941576004,0.13710156083106995
1685476186816870000,17.558869873046874,9.703728675842285,-0.0387381836771965,0.11045889556407928
1685476186836870000,17.578869873046877,9.618264198303223,-0.03632482886314392,0.20074902474880219
1685476186856870000,17.598869873046876,9.762414932250977,-0.0332985557615757,0.40297287702560425
1685476186876870000,17.618869873046876,9.770000457763672,-0.08556877076625824,-0.0323408767580986
1685476186896870000,17.638869873046875,9.925095558166504,-0.09953175485134125,-0.36621710658073425
1685476186916870000,17.658869873046875,9.756065368652344,-0.12970826029777527,-0.22943156957626343
1685476186936870000,17.678869873046875,9.728474617004395,-0.17835845053195953,-0.03897760435938835
1685476186956870000,17.698869873046874,9.714491844177246,-0.25850674510002136,-0.028280310332775116
1685476186976870000,17.718869873046874,9.71183967590332,-0.2617054283618927,-0.10497137904167175
1685476186996870000,17.738869873046873,9.865586280822754,-0.2384912222623825,0.08087613433599472
1685476187016870000,17.758869873046876,9.73889446258545,-0.2976663112640381,-0.05771941319108009
1685476187036870000,17.778869873046876,9.84245777130127,-0.25145822763442993,-0.05086242035031319
1685476187056870000,17.798869873046876,9.86038589477539,-0.1888737827539444,0.14891934394836426
1685476187076870000,17.818869873046875,9.843117713928223,-0.1419474333524704,0.12403880059719086
1685476187096870000,17.838869873046875,9.76325798034668,-0.11230721324682236,-0.12103168666362762
1685476187116870000,17.858869873046874,9.719194412231445,-0.09970413148403168,-0.047194503247737885
1685476187136870000,17.878869873046874,9.95486068725586,-0.20162051916122437,-0.14793293178081512
1685476187156870000,17.898869873046873,9.729825019836426,-0.16575537621974945,-0.008772355504333973
1685476187176870000,17.918869873046877,9.659655570983887,-0.0249954666942358,0.06817728281021118
1685476187196870000,17.938869873046876,9.739315032958984,-0.08911219239234924,0.006014234386384487
1685476187216870000,17.958869873046876,9.818046569824219,-0.1470710188150406,-0.005698200315237045
1685476187236870000,17.978869873046875,9.711389541625977,-0.16901148855686188,-0.0874362513422966
1685476187256870000,17.998869873046875,9.848913192749023,-0.07196012884378433,-0.06322608143091202
1685476187276870000,18.018869873046874,9.776300430297852,-0.2320939153432846,-0.21537280082702637
1685476187296870000,18.038869873046874,9.87331485748291,-0.2247963845729828,-0.33708444237709045
1685476187316870000,18.058869873046874,9.853509902954102,-0.03619075566530228,-0.16719189286231995
1685476187336870000,18.078869873046877,9.815479278564453,-0.017812861129641533,-0.1486799269914627
1685476187356870000,18.098869873046876,9.714569091796875,-0.05691496282815933,-0.15623602271080017
1685476187376870000,18.118869873046876,9.808038711547852,0.00042137951822951436,-0.2074623703956604
1685476187396870000,18.138869873046875,9.784355163574219,-0.010955866426229477,-0.26182031631469727
1685476187416870000,18.158869873046875,9.756726264953613,-0.04234864190220833,-0.2789532244205475
1685476187436870000,18.178869873046875,9.725582122802734,-0.008810662664473057,-0.13108733296394348
1685476187456870000,18.198869873046874,9.80489730834961,-0.1581418216228485,-0.08445785939693451
1685476187476870000,18.218869873046874,9.783158302307129,-0.4782274067401886,-0.35229241847991943
1685476187496870000,18.238869873046873,9.843109130859375,-0.3048584759235382,0.09092220664024353
1685476187516870000,18.258869873046876,9.865738868713379,-0.368956059217453,0.22373336553573608
1685476187536870000,18.278869873046876,9.83336067199707,-0.6892236471176147,-0.11222102493047714
1685476187556870000,18.298869873046876,9.729939460754395,-0.4884554445743561,-0.0187226589769125
1685476187576870000,18.318869873046875,9.876082420349121,-0.24103865027427673,0.186996728181839
1685476187596870000,18.338869873046875,9.934673309326172,-0.08259038627147675,0.25845885276794434
1685476187616870000,18.358869873046874,9.584851264953613,0.2379070222377777,0.48142609000205994
1685476187636870000,18.378869873046874,9.889355659484863,0.13146083056926727,0.27442339062690735
1685476187656870000,18.398869873046873,9.854687690734863,0.10811257362365723,0.09912952780723572
1685476187676870000,18.418869873046877,9.710785865783691,-0.07495766133069992,-0.022543802857398987
1685476187696870000,18.438869873046876,9.720592498779297,-0.1909806877374649,-0.2463442087173462
1685476187716870000,18.458869873046876,9.803317070007324,-0.06626192480325699,0.13126929104328156
1685476187736870000,18.478869873046875,9.989049911499023,-0.10115981101989746,0.08314583450555801
1685476187756870000,18.498869873046875,9.90056037902832,-0.1832043081521988,-0.09259814769029617
1685476187776870000,18.518869873046874,9.913240432739258,-0.27105236053466797,-0.25006958842277527
1685476187796870000,18.538869873046874,9.8388090133667,-0.14687947928905487,0.04307647794485092
1685476187816870000,18.558869873046874,9.913681030273438,-0.14766478538513184,0.13935211300849915
1685476187836870000,18.578869873046877,9.73620319366455,-0.13215993344783783,-0.046150632202625275
1685476187856870000,18.598869873046876,9.802139282226562,-0.09142019599676132,-0.10138007253408432
1685476187876870000,18.618869873046876,9.728273391723633,-0.01542823575437069,-0.08773312717676163
1685476187896870000,18.638869873046875,9.852370262145996,0.06104256957769394,0.2448214888572693
1685476187916870000,18.658869873046875,9.771839141845703,0.028950687497854233,0.09283756464719772
1685476187936870000,18.678869873046875,9.825353622436523,-0.03410300984978676,0.10072885453701019
1685476187956870000,18.698869873046874,9.943971633911133,-0.04066311940550804,0.17289967834949493
1685476187976870000,18.718869873046874,9.780179977416992,-0.0219213105738163,0.20241539180278778
1685476187996870000,18.738869873046873,9.873679161071777,-0.061626750975847244,-0.038920141756534576
1685476188016870000,18.758869873046876,9.75841236114502,-0.11193371564149857,-0.16545850038528442
1685476188036870000,18.778869873046876,9.777048110961914,0.12367488443851471,0.14866076409816742
1685476188056870000,18.798869873046876,9.774213790893555,0.14933115243911743,0.2506825029850006
1685476188076870000,18.818869873046875,9.688156127929688,-0.09781750291585922,-0.1741446554660797
1685476188096870000,18.838869873046875,9.850665092468262,-0.21781489253044128,-0.2634771168231964
1685476188116870000,18.858869873046874,9.790762901306152,-0.12265974283218384,-0.08674672245979309
1685476188136870000,18.878869873046874,9.736615180969238,-0.16919344663619995,-0.07463205605745316
1685476188156870000,18.898869873046873,9.880037307739258,-0.2106514424085617,-0.19299180805683136
1685476188176870000,18.918869873046877,9.839680671691895,-0.12268847227096558,-0.15326720476150513
1685476188196870000,18.938869873046876,9.738826751708984,-0.20395725965499878,-0.11878113448619843
1685476188216870000,18.958869873046876,9.894613265991211,-0.09268433600664139,0.09239703416824341
1685476188236870000,18.978869873046875,9.710546493530273,-0.15912821888923645,-0.17495867609977722
1685476188256870000,18.998869873046875,9.835227966308594,-0.29400795698165894,-0.18548358976840973
1685476188276870000,19.018869873046874,9.760336875915527,-0.22836853563785553,-0.13510958850383759
1685476188296870000,19.038869873046874,9.91141128540039,-0.15206053853034973,-0.05586151406168938
1685476188316870000,19.058869873046874,9.8204984664917,-0.007575253956019878,0.1285303235054016
1685476188336870000,19.078869873046877,9.872758865356445,-0.09060616791248322,0.03999274596571922
1685476188356870000,19.098869873046876,9.842227935791016,-0.041745301336050034,-0.015054740011692047
1685476188376870000,19.118869873046876,9.751497268676758,-0.14512692391872406,-0.08913134038448334
1685476188396870000,19.138869873046875,9.926206588745117,-0.06109045073390007,0.06825389713048935
1685476188416870000,19.158869873046875,9.82872486114502,-0.043469127267599106,0.2524542212486267
1685476188436870000,19.178869873046875,9.82117748260498,0.005765237845480442,0.5150789618492126
1685476188456870000,19.198869873046874,9.785198211669922,0.021212628111243248,0.4921520948410034
1685476188476870000,19.218869873046874,9.70471477508545,0.005085284356027842,0.2699127197265625
1685476188496870000,19.238869873046873,9.790877342224121,-0.035041533410549164,0.1430104523897171
1685476188516870000,19.258869873046876,9.672354698181152,-0.025177424773573875,-0.12887509167194366
1685476188536870000,19.278869873046876,9.844908714294434,-0.03185245767235756,-0.08130709081888199
1685476188556870000,19.298869873046876,9.776876449584961,-0.12168290466070175,-0.30557674169540405
1685476188576870000,19.318869873046875,9.97681999206543,-0.06190447881817818,-0.15655206143856049
1685476188596870000,19.338869873046875,9.803365707397461,-0.10422439128160477,-0.09778877347707748
1685476188616870000,19.358869873046874,9.77600383758545,-0.015552734024822712,-0.03028186224400997
1685476188636870000,19.378869873046874,9.750701904296875,-0.042549751698970795,-0.05168602615594864
1685476188656870000,19.398869873046873,9.825161933898926,0.039772480726242065,0.20506815612316132
1685476188676870000,19.418869873046877,9.76597785949707,-0.0586579404771328,-0.03624821454286575
1685476188696870000,19.438869873046876,9.871456146240234,-0.07723694294691086,-0.190999835729599
1685476188716870000,19.458869873046876,9.747101783752441,-0.017525557428598404,-0.10342951118946075
1685476188736870000,19.478869873046875,9.727805137634277,0.013196839019656181,0.11243171244859695
1685476188756870000,19.498869873046875,9.833675384521484,-0.10277829319238663,0.021739350631833076
1685476188776870000,19.518869873046874,9.759943962097168,-0.14163139462471008,-0.16285361349582672
1685476188796870000,19.538869873046874,9.750223159790039,-0.14822980761528015,-0.20022229850292206
1685476188816870000,19.558869873046874,9.765499114990234,-0.044867340475320816,-0.03497450053691864
1685476188836870000,19.578869873046877,9.790389060974121,-0.019402610138058662,0.1749778389930725
1685476188856870000,19.598869873046876,9.774989128112793,-0.07579084485769272,0.24437138438224792
1685476188876870000,19.618869873046876,9.734163284301758,-0.24879586696624756,-0.028797458857297897
1685476188896870000,19.638869873046875,9.818678855895996,-0.14781801402568817,0.19524236023426056
1685476188916870000,19.658869873046875,9.78636646270752,-0.07078217715024948,0.3561997413635254
1685476188936870000,19.678869873046875,9.812759399414062,-0.18310855329036713,0.002317587146535516
1685476188956870000,19.698869873046874,9.787095069885254,-0.2155068814754486,-0.3397563695907593
1685476188976870000,19.718869873046874,9.80020523071289,-0.3418728709220886,-0.24865220487117767
1685476188996870000,19.738869873046873,9.786577224731445,-0.14347971975803375,-0.059443242847919464
1685476189016870000,19.758869873046876,9.741623878479004,-0.043162669986486435,-0.2968714237213135
1685476189036870000,19.778869873046876,9.800827026367188,-0.06860824674367905,-0.32343751192092896
1685476189056870000,19.798869873046876,9.792495727539062,-0.07283161580562592,-0.28950685262680054
1685476189076870000,19.818869873046875,9.77895450592041,-0.0899166390299797,0.04269340634346008
1685476189096870000,19.838869873046875,9.773188591003418,-0.1441979855298996,0.015370775014162064
1685476189116870000,19.858869873046874,9.794516563415527,-0.06751649081707001,0.025838224217295647
1685476189136870000,19.878869873046874,9.836080551147461,-0.055890243500471115,-0.09699389338493347
1685476189156870000,19.898869873046873,9.76272201538086,-0.11171344667673111,-0.3028569221496582
1685476189176870000,19.918869873046877,9.790129661560059,-0.04770207777619362,-0.3746063709259033
1685476189196870000,19.938869873046876,9.820709228515625,0.062124744057655334,-0.15183068811893463
1685476189216870000,19.958869873046876,9.772757530212402,0.08480262756347656,0.18167202174663544
1685476189236870000,19.978869873046875,9.806851387023926,0.05780560523271561,0.03418920189142227
1685476189256870000,19.998869873046875,9.757607460021973,0.11330319941043854,-0.10915643721818924
1685476189276870000,20.018869873046874,9.7699613571167,-0.04876509681344032,-0.2538236975669861
1685476189296870000,20.038869873046874,9.812971115112305,-0.08201576769351959,-0.19974344968795776
1685476189316870000,20.058869873046874,9.73086929321289,-0.12124237418174744,0.01613691821694374
1685476189336870000,20.078869873046877,9.817835807800293,-0.15928144752979279,-0.033097442239522934
1685476189356870000,20.098869873046876,9.882364273071289,-0.19057846069335938,-0.1077103391289711
1685476189376870000,20.118869873046876,9.763276100158691,-0.15391844511032104,0.12680649757385254
1685476189396870000,20.138869873046875,9.868209838867188,-0.14766478538513184,0.3912796080112457
1685476189416870000,20.158869873046875,9.85530948638916,-0.07119398564100266,0.45667004585266113
1685476189436870000,20.178869873046875,9.74951457977295,-0.10468407720327377,0.16805380582809448
1685476189456871400,20.198871337890626,9.720640182495117,-0.11559205502271652,-0.21555475890636444
1685476189476870000,20.218869873046874,9.867769241333008,-0.08065586537122726,0.23235249519348145
1685476189496870000,20.238869873046873,9.673274040222168,-0.12526462972164154,0.210919588804245
1685476189516870000,20.258869873046876,9.7246732711792,-0.05559336394071579,0.06365703791379929
1685476189536870000,20.278869873046876,9.762041091918945,-0.09885179996490479,0.03933194652199745
1685476189556870000,20.298869873046876,9.683185577392578,-0.08221688866615295,0.11625286191701889
1685476189576870000,20.318869873046875,9.903998374938965,-0.07078217715024948,0.2308201938867569
1685476189596870000,20.338869873046875,9.762080192565918,-0.10465534031391144,-0.06367618590593338
1685476189616870000,20.358869873046874,9.7724609375,-0.06443275511264801,-0.08428547531366348
1685476189636870000,20.378869873046874,9.779547691345215,-0.07320510596036911,-0.014164096675813198
1685476189656870000,20.398869873046873,9.767241477966309,-0.08218815922737122,0.029103916138410568
1685476189676870000,20.418869873046877,9.73556137084961,-0.09503065794706345,-0.015562310814857483
1685476189696870000,20.438869873046876,9.810260772705078,-0.09017521142959595,0.0817476212978363
1685476189716870000,20.458869873046876,9.7612943649292,-0.11307335644960403,-0.045700524002313614
1685476189736870000,20.478869873046875,9.735111236572266,-0.21590910851955414,-0.015246276743710041
1685476189756870000,20.498869873046875,9.826809883117676,-0.3266170024871826,-0.28755319118499756
1685476189776870000,20.518869873046874,9.746134757995605,-0.18604862689971924,-0.5052148699760437
1685476189796870000,20.538869873046874,9.809274673461914,-0.06395391374826431,-0.41562384366989136
1685476189816870000,20.558869873046874,9.804102897644043,0.09970413148403168,0.19109559059143066
1685476189836870000,20.578869873046877,9.835112571716309,-0.06721960753202438,0.32760339975357056
1685476189856870000,20.598869873046876,9.683770179748535,-0.12054326385259628,0.2511613368988037
1685476189876870000,20.618869873046876,9.805941581726074,-0.31943437457084656,-0.14294342696666718
1685476189896870000,20.638869873046875,9.67489242553711,0.007000645622611046,-0.15750016272068024
1685476189916870000,20.658869873046875,9.699179649353027,0.05369715392589569,-0.0962086021900177
1685476189936870000,20.678869873046875,9.662318229675293,-0.04023216664791107,-0.2706022560596466
1685476189956870000,20.698869873046874,9.7811279296875,-0.03526180237531662,-0.010764330625534058
1685476189976870000,20.718869873046874,9.76684856414795,-0.14145901799201965,0.07620265334844589
1685476189996870000,20.738869873046873,9.77060317993164,-0.13180558383464813,0.05660850554704666
1685476190016870000,20.758869873046876,9.787409782409668,-0.160038024187088,-0.1419474333524704
1685476190036870000,20.778869873046876,9.8296537399292,-0.06820601969957352,-0.441758930683136
1685476190056871400,20.798871337890624,9.814685821533203,-0.2558060884475708,-0.2172594517469406
1685476190076870000,20.818869873046875,9.79690170288086,-0.19025284051895142,-0.11461522430181503
1685476190096870000,20.838869873046875,9.789813995361328,-0.11072704195976257,0.12582966685295105
1685476190116870000,20.858869873046874,9.79289722442627,-0.02220861427485943,0.2166273593902588
1685476190136870000,20.878869873046874,9.745051383972168,-0.19462944567203522,0.51144939661026
1685476190156879400,20.89887939453125,9.801546096801758,-0.28284141421318054,0.40182366967201233
1685476190176870000,20.918869873046877,9.829998016357422,-0.19886240363121033,0.1777263730764389
1685476190196871400,20.938871337890625,9.861161231994629,0.03547249361872673,0.15604449808597565
1685476190216870000,20.958869873046876,9.820211410522461,0.20111294090747833,0.40166085958480835
1685476190236870000,20.978869873046875,9.781769752502441,0.041103653609752655,0.04524083808064461
1685476190256870000,20.998869873046875,9.728092193603516,-0.1663491427898407,0.2198834866285324
1685476190276870000,21.018869873046874,9.791068077087402,-0.11761276423931122,0.140989750623703
1685476190296870000,21.038869873046874,9.820115089416504,-0.07040868699550629,0.13619177043437958
1685476190316870000,21.058869873046874,9.872481346130371,-0.10374554246664047,-0.47484681010246277
1685476190336870000,21.078869873046877,9.77338981628418,-0.06482540816068649,-0.014470554888248444
1685476190356870000,21.098869873046876,9.763104438781738,-0.012823344208300114,0.3698562979698181
1685476190376870000,21.118869873046876,9.887832641601562,-0.03603752702474594,0.5684218406677246
1685476190396870000,21.138869873046875,9.844861030578613,-0.12077310681343079,0.11914505064487457
1685476190416870000,21.158869873046875,9.771225929260254,-0.08757989853620529,0.24932259321212769
1685476190436870000,21.178869873046875,9.794401168823242,-0.02175850421190262,0.6081655025482178
1685476190456871400,21.198871337890626,9.808374404907227,-0.02812708169221878,0.24895866215229034
1685476190476871400,21.218871337890626,9.763995170593262,-0.11322658509016037,0.12074437737464905
1685476190496870000,21.238869873046873,9.805883407592773,0.013292607851326466,0.34029266238212585
1685476190516870000,21.258869873046876,9.761016845703125,-0.08188170194625854,0.30528944730758667
1685476190536870000,21.278869873046876,9.731472969055176,0.05359181389212608,0.7282299995422363
1685476190556870000,21.298869873046876,9.792141914367676,0.027638664469122887,0.4673577547073364
1685476190576870000,21.318869873046875,9.772192001342773,-0.045461103320121765,0.39138495922088623
1685476190596870000,21.338869873046875,9.764789581298828,0.15627433359622955,0.3754970133304596
1685476190616870000,21.358869873046874,9.793482780456543,0.05324704572558403,0.1509879231452942
1685476190636870000,21.378869873046874,9.788980484008789,-0.007661445531994104,0.007125144358724356
1685476190656870000,21.398869873046873,9.805136680603027,-0.01358948927372694,-0.0267767533659935
1685476190676870000,21.418869873046877,9.802206039428711,-0.0010342950699850917,-0.012631808407604694
1685476190696870000,21.438869873046876,9.8157958984375,-0.014662091620266438,-0.008868123404681683
1685476190716870000,21.458869873046876,9.848166465759277,-0.0020494365599006414,0.02068590372800827
1685476190736870000,21.478869873046875,9.791422843933105,-0.014872781001031399,0.000019153612811351195
1685476190756870000,21.498869873046875,9.74760913848877,-0.26777708530426025,-0.25363215804100037
1685476190776870000,21.518869873046874,9.791126251220703,-0.025196578353643417,-0.008983044885098934
1685476190796870000,21.538869873046874,9.79758071899414,-0.007709329482167959,-0.0357789508998394
1685476190816870000,21.558869873046874,9.817596435546875,-0.01883758045732975,-0.0015418659895658493
1685476190836870000,21.578869873046877,9.795100212097168,-0.02108812890946865,-0.02139458619058132
1685476190856870000,21.598869873046876,9.750041961669922,-0.10547894984483719,-0.12337800115346909
1685476190876870000,21.618869873046876,9.847705841064453,-1.7671794891357422,-1.703924536705017
1685476190896870000,21.638869873046875,9.770066261291504,-1.9327433109283447,-1.6676955223083496
1685476190916870000,21.658869873046875,9.928582191467285,-1.0720373392105103,-0.5374791026115417
1685476190936870000,21.678869873046875,9.655183792114258,-0.6127241253852844,-0.22596475481987
1685476190956870000,21.698869873046874,9.766226768493652,-0.5297027826309204,-0.08553046733140945
1685476190976870000,21.718869873046874,9.739891052246094,-0.678267776966095,-0.18009185791015625
1685476190996870000,21.738869873046873,9.789325714111328,-0.3853994309902191,-0.0127946138381958
1685476191016870000,21.758869873046876,9.705567359924316,-0.22242134809494019,-0.02113601379096508
1685476191036870000,21.778869873046876,9.864781379699707,-0.02237142063677311,0.025962723419070244
1685476191056870000,21.798869873046876,9.912704467773438,0.11210609972476959,0.12576262652873993
1685476191076870000,21.818869873046875,9.964265823364258,0.08254249393939972,-0.044991835951805115
1685476191096870000,21.838869873046875,9.694036483764648,0.2758695185184479,0.1532193273305893
1685476191116870000,21.858869873046874,9.908317565917969,0.28751489520072937,0.01922065205872059
1685476191136870000,21.878869873046874,9.97730827331543,0.35098037123680115,0.3292027413845062
1685476191156870000,21.898869873046873,9.832919120788574,0.004836287349462509,0.09641928970813751
1685476191176870000,21.918869873046877,9.709847450256348,-0.07397124916315079,0.12367488443851471
1685476191196870000,21.938869873046876,9.902332305908203,0.027763161808252335,0.288357675075531
1685476191216870000,21.958869873046876,9.823380470275879,-0.07130890339612961,0.17406803369522095
1685476191236870000,21.978869873046875,10.031292915344238,-0.20309533178806305,0.019258959218859673
1685476191256870000,21.998869873046875,9.46778392791748,-0.18363526463508606,-0.0043766009621322155
1685476191276870000,22.018869873046874,9.843099594116211,-0.2882235646247864,-0.12722787261009216
1685476191296870000,22.038869873046874,9.872892379760742,-0.1492641121149063,-0.03913083299994469
1685476191316870000,22.058869873046874,9.980019569396973,-0.031105468049645424,0.014451401308178902
1685476191336870000,22.078869873046877,9.52596378326416,0.11925039440393448,0.327823668718338
1685476191356870000,22.098869873046876,9.473071098327637,0.006751649081707001,0.17887559533119202
1685476191376870000,22.118869873046876,9.550307273864746,-0.23183533549308777,-0.3332154154777527
1685476191396870000,22.138869873046875,9.997095108032227,-0.18146133422851562,-0.10526825487613678
1685476191416870000,22.158869873046875,9.846317291259766,-0.053093817085027695,0.2442181557416916
1685476191436870000,22.178869873046875,9.804677963256836,-0.06654923409223557,0.15771086513996124
1685476191456870000,22.198869873046874,9.74325180053711,0.024899698793888092,0.19926461577415466
1685476191476870000,22.218869873046874,9.833857536315918,0.1142129972577095,0.3602316081523895
1685476191496870000,22.238869873046873,9.613677978515625,-0.29059863090515137,-0.5189958810806274
1685476191516870000,22.258869873046876,9.782841682434082,-0.20715591311454773,-0.2631993591785431
1685476191536870000,22.278869873046876,9.694840431213379,-0.21043118834495544,-0.10636959224939346
1685476191556870000,22.298869873046876,9.686049461364746,-0.10219410806894302,-0.025531766936182976
1685476191576870000,22.318869873046875,9.630322456359863,0.11562079191207886,0.2800832688808441
1685476191596870000,22.338869873046875,9.776531219482422,0.21611979603767395,0.5402372479438782
1685476191616870000,22.358869873046874,9.85983943939209,0.496480792760849,1.0618668794631958
1685476191636870000,22.378869873046874,9.846136093139648,0.6484934687614441,1.3041982650756836
1685476191656870000,22.398869873046873,9.823619842529297,0.6514910459518433,1.1455200910568237
1685476191676870000,22.418869873046877,9.899717330932617,-0.3387412428855896,-1.2901203632354736
1685476191696871400,22.438871337890625,9.621559143066406,-0.9195458292961121,-1.8574504852294922
1685476191716870000,22.458869873046876,9.856881141662598,-0.9869186878204346,-2.031231164932251
1685476191736870000,22.478869873046875,9.666091918945312,-0.7592013478279114,-1.3646565675735474
1685476191756870000,22.498869873046875,9.74133586883545,-0.34959176182746887,-0.7432751655578613
1685476191776870000,22.518869873046874,9.800167083740234,0.025742456316947937,0.4232373833656311
1685476191796870000,22.538869873046874,9.703871726989746,0.003371036145836115,0.6247333884239197
1685476191816870000,22.558869873046874,9.764885902404785,0.18625931441783905,0.9845723509788513
1685476191836870000,22.578869873046877,9.271909713745117,0.23541706800460815,1.051370620727539
1685476191856870000,22.598869873046876,9.602702140808105,0.1846025288105011,0.752957284450531
1685476191876870000,22.618869873046876,9.69774341583252,0.024066515266895294,0.20123744010925293
1685476191896870000,22.638869873046875,9.694955825805664,-0.1752268373966217,-0.11577402055263519
1685476191916929300,22.65892919921875,9.923047065734863,-0.09398677945137024,0.006876147352159023
1685476191936870000,22.678869873046875,9.596850395202637,-0.0962086021900177,0.3298826813697815
1685476191956870000,22.698869873046874,10.113280296325684,-0.07748594880104065,0.33595436811447144
1685476191976870000,22.718869873046874,9.844881057739258,-0.092521533370018,0.3271915912628174
1685476191996870000,22.738869873046873,9.88357162475586,-0.001283292076550424,0.5601761341094971
1685476192016870000,22.758869873046876,9.582801818847656,-0.06049668788909912,0.41922473907470703
1685476192036870000,22.778869873046876,9.791452407836914,-0.05803544819355011,0.25462815165519714
1685476192056870000,22.798869873046876,9.863085746765137,-0.04909071326255798,0.14390109479427338
1685476192076870000,22.818869873046875,9.7429838180542,-0.09472420066595078,-0.060554150491952896
1685476192096870000,22.838869873046875,9.740129470825195,-0.1341135948896408,-0.03218764811754227
1685476192116870000,22.858869873046874,9.90415096282959,-0.15120820701122284,0.19757910072803497
1685476192136870000,22.878869873046874,9.861831665039062,-0.05495171621441841,0.2970821261405945
1685476192156870000,22.898869873046873,9.653947830200195,-0.15060485899448395,0.1671631634235382
1685476192176870000,22.918869873046877,9.924473762512207,-0.05696284770965576,0.19827821850776672
1685476192196870000,22.938869873046876,9.768122673034668,-0.07694964855909348,0.04376600682735443
1685476192216870000,22.958869873046876,9.855175971984863,-0.141612246632576,-0.07062894850969315
1685476192236870000,22.978869873046875,9.907273292541504,-0.09060616791248322,-0.034802116453647614
1685476192256870000,22.998869873046875,9.707452774047852,-0.12305238842964172,0.09535626322031021
1685476192276870000,23.018869873046874,9.733186721801758,-0.114442840218544,-0.10120769590139389
1685476192296870000,23.038869873046874,9.668744087219238,-0.18159541487693787,-0.05862921103835106
1685476192316870000,23.058869873046874,9.780208587646484,-0.0902901366353035,0.07055233418941498
1685476192336870000,23.078869873046877,9.598498344421387,-0.12413457036018372,0.09651505947113037
1685476192356870000,23.098869873046876,9.823294639587402,-0.10136092454195023,0.1842673271894455
1685476192376870000,23.118869873046876,9.74685287475586,-0.11603259295225143,-0.08593268692493439
1685476192396870000,23.138869873046875,9.646084785461426,-0.1695765256881714,-0.24412237107753754
1685476192416870000,23.158869873046875,9.836271286010742,-0.1851867139339447,-0.08575072139501572
1685476192436870000,23.178869873046875,9.762385368347168,-0.06092764809727669,0.04608359560370445
1685476192456870000,23.198869873046874,9.851497650146484,-0.049349285662174225,0.19015707075595856
1685476192476870000,23.218869873046874,9.78402042388916,-0.03275267779827118,0.12292789667844772
1685476192496870000,23.238869873046873,9.706514358520508,-0.06152140721678734,-0.02134670317173004
1685476192516870000,23.258869873046876,9.87619686126709,-0.04334462806582451,-0.02846227027475834
1685476192536870000,23.278869873046876,9.787534713745117,-0.0794970691204071,0.09421662986278534
1685476192556870000,23.298869873046876,9.798328399658203,-0.11120587587356567,0.10039366781711578
1685476192576870000,23.318869873046875,9.854400634765625,-0.08044517785310745,0.10992259532213211
1685476192596870000,23.338869873046875,9.803556442260742,-0.10031705349683762,0.0734541118144989
1685476192616870000,23.358869873046874,9.932584762573242,-0.08567410707473755,0.15897499024868011
1685476192636870000,23.378869873046874,9.774453163146973,-0.10063308477401733,0.057336341589689255
1685476192656870000,23.398869873046873,9.866265296936035,-0.07510131597518921,0.15148593485355377
1685476192676870000,23.418869873046877,9.791327476501465,-0.08627744764089584,0.027715278789401054
1685476192696871400,23.438871337890625,9.708536148071289,-0.003945644479244947,0.06125325709581375
1685476192716870000,23.458869873046876,9.72676944732666,-0.01666364260017872,0.15902286767959595
1685476192736870000,23.478869873046875,9.613160133361816,-0.10694419592618942,0.011722011491656303
1685476192756870000,23.498869873046875,9.739344596862793,-0.0901656374335289,0.07449797540903091
1685476192776870000,23.518869873046874,9.815805435180664,-0.12021765857934952,0.11941319704055786
1685476192796870000,23.538869873046874,9.859417915344238,-0.08694782853126526,0.05712565407156944
1685476192816870000,23.558869873046874,9.706725120544434,-0.10009678453207016,0.03255156800150871
1685476192836870000,23.578869873046877,9.846355438232422,-0.10346782207489014,0.1914403736591339
1685476192856870000,23.598869873046876,9.792448043823242,-0.12024638056755066,0.057527877390384674
1685476192876870000,23.618869873046876,9.828964233398438,-0.085769884288311,0.0832894891500473
1685476192896870000,23.638869873046875,9.789191246032715,-0.10572794079780579,0.28038015961647034
1685476192916870000,23.658869873046875,9.841547966003418,0.06499778479337692,0.3992953896522522
1685476192936870000,23.678869873046875,9.759848594665527,0.16024869680404663,0.40572139620780945
1685476192956870000,23.698869873046874,9.79037857055664,0.10275913774967194,0.2641379237174988
1685476192976870000,23.718869873046874,9.794382095336914,0.0911233127117157,0.2063801884651184
1685476192996870000,23.738869873046873,9.806046485900879,0.12282254546880722,0.30157363414764404
1685476193016870000,23.758869873046876,9.795062065124512,0.28196990489959717,0.6133657097816467
1685476193036870000,23.778869873046876,9.785810470581055,-0.040720582008361816,-0.019498378038406372
1685476193056870000,23.798869873046876,9.77953815460205,-0.0342370830476284,-0.027198132127523422
1685476193076870000,23.818869873046875,9.801010131835938,-0.03960009664297104,-0.022543802857398987
1685476193096870000,23.838869873046875,9.792840957641602,-0.026412831619381905,-0.035252224653959274
1685476193116870000,23.858869873046874,9.783407211303711,-0.05270116776227951,-0.027217285707592964
1685476193136870000,23.878869873046874,9.783905029296875,-0.0215669684112072,-0.005822698585689068
1685476193156870000,23.898869873046873,9.789125442504883,-0.021978771314024925,-0.02341529354453087
1685476193176870000,23.918869873046877,9.801765441894531,-0.04246356338262558,-0.030138209462165833
1685476193196870000,23.938869873046876,9.798912048339844,-0.028194118291139603,-0.013828909024596214
1685476193216870000,23.958869873046876,9.775065422058105,-0.043660663068294525,-0.028040889650583267
1685476193236870000,23.978869873046875,9.790292739868164,-0.030243555083870888,-0.008647856302559376
1685476193256870000,23.998869873046875,9.79349136352539,-0.036075834184885025,-0.03061705268919468
1685476193276870000,24.018869873046874,9.784153938293457,-0.03128742799162865,-0.01661575958132744
1685476193296870000,24.038869873046874,9.792562484741211,-0.020551826804876328,-0.0181288942694664
1685476193316870000,24.058869873046874,9.807445526123047,-0.028538884595036507,-0.027092786505818367
1685476193336870000,24.078869873046877,9.789460182189941,-0.03408385440707207,-0.030837317928671837
1685476193356870000,24.098869873046876,9.779346466064453,-0.04622724652290344,-0.020762518048286438
1685476193376870000,24.118869873046876,9.778772354125977,-0.027945121750235558,-0.013436260633170605
1685476193396870000,24.138869873046875,9.787822723388672,-0.030186094343662262,-0.026192566379904747
1685476193416870000,24.158869873046875,9.787296295166016,-0.04837245121598244,-0.018148047849535942
1685476193436870000,24.178869873046875,9.793722152709961,-0.04747223109006882,-0.03445735201239586
1685476193456870000,24.198869873046874,9.809734344482422,-0.032005686312913895,-0.017975665628910065
1685476193476870000,24.218869873046874,9.788808822631836,-0.034821268171072006,-0.023185448721051216
1685476193496870000,24.238869873046873,9.797954559326172,-0.038134846836328506,-0.02168188989162445
1685476193516870000,24.258869873046876,9.796451568603516,-0.044896069914102554,-0.028845341876149178
1685476193536870000,24.278869873046876,9.799495697021484,-0.025933992117643356,-0.029448680579662323
1685476193556870000,24.298869873046876,9.795540809631348,-0.04582501947879791,-0.03205357491970062
