time,seconds_elapsed,z,y,x
1685548187605782000,0.248781982421875,0.017383478581905365,-0.002914699725806713,0.05539675056934357
1685548187630775600,0.273775634765625,0.3409675359725952,-0.05054473504424095,0.16660912334918976
1685548187650777300,0.29377734375,0.3508984446525574,-0.0031415927223861217,0.1987057328224182
1685548187670775600,0.313775634765625,0.32969269156455994,-0.009494591504335403,0.14964452385902405
1685548187690777300,0.33377734375,0.2557780146598816,0.011815878562629223,0.07045894116163254
1685548187710775600,0.353775634765625,0.15791739523410797,0.041922807693481445,0.04398229718208313
1685548187730775600,0.373775634765625,0.0961850956082344,0.04056145250797272,0.07178539037704468
1685548187750777300,0.39377734375,0.05824163556098938,-0.016545720398426056,0.047333329916000366
1685548187770777300,0.41377734375,0.010646508075296879,-0.10124655067920685,-0.03659955412149429
1685548187790775600,0.433775634765625,-0.05078908056020737,-0.16730725765228271,-0.10173524171113968
1685548187810777300,0.45377734375,-0.09833184629678726,-0.22357667982578278,-0.09573131054639816
1685548187830777300,0.47377734375,-0.11381292343139648,-0.24371777474880219,-0.04082325100898743
1685548187850775600,0.493775634765625,-0.07936011999845505,-0.17936748266220093,-0.01202531810849905
1685548187870775600,0.513775634765625,-0.010035643354058266,-0.04092797264456749,0.007609635591506958
1685548187890775600,0.533775634765625,0.08436921238899231,0.09712757170200348,0.03415609151124954
1685548187910775600,0.553775634765625,0.12610003352165222,0.12397073954343796,0.03214896470308304
1685548187930793000,0.57379296875,0.09253735840320587,0.09583602845668793,0.04239404574036598
1685548187950775600,0.593775634765625,0.04707153141498566,0.09953612834215164,0.0507018156349659
1685548187970777300,0.61377734375,0.05054473504424095,0.10032152384519577,0.007609635591506958
1685548187990775600,0.633775634765625,0.03675663471221924,0.06962118297815323,-0.013631021603941917
1685548188010775600,0.653775634765625,0.008325220085680485,0.0705462098121643,-0.023945916444063187
1685548188030775600,0.673775634765625,0.0005061454721726477,0.09061749279499054,-0.06700319051742554
1685548188050775600,0.693775634765625,-0.024469515308737755,0.13348278403282166,-0.08915141969919205
1685548188070775600,0.713775634765625,-0.06311110407114029,0.12997466325759888,-0.1008102148771286
1685548188090777300,0.73377734375,-0.09241518378257751,0.0717330351471901,-0.09628981351852417
1685548188110775600,0.753775634765625,-0.10606365650892258,0.07330382615327835,-0.053215090185403824
1685548188130775600,0.773775634765625,-0.07627088576555252,0.11149163544178009,-0.03787364438176155
1685548188150775600,0.793775634765625,-0.013892821036279202,0.12409290671348572,-0.039043016731739044
1685548188170775600,0.813775634765625,0.022200588136911392,0.05918411538004875,-0.07648032903671265
1685548188190775600,0.833775634765625,0.027122415602207184,0.009808750823140144,-0.07998844236135483
1685548188210775600,0.853775634765625,0.013962633907794952,-0.022881265729665756,-0.03907792270183563
1685548188230777300,0.87377734375,0.012007865123450756,-0.01754055917263031,-0.029478611424565315
1685548188250775600,0.893775634765625,0.027715828269720078,0.03375466912984848,-0.060440752655267715
1685548188270775600,0.913775634765625,0.052028264850378036,0.06195918843150139,-0.09892526268959045
1685548188290775600,0.933775634765625,0.0743335708975792,0.03364994749426842,-0.12941616773605347
1685548188310775600,0.953775634765625,0.06667158007621765,-0.012252211570739746,-0.10709340125322342
1685548188330775600,0.973775634765625,0.03392919898033142,-0.021467549726366997,-0.044139377772808075
1685548188350775600,0.993775634765625,0.02361430414021015,-0.0005410520825535059,0.002548180753365159
1685548188370775600,1.013775634765625,0.048031460493803024,0.01740093342959881,0.008133234456181526
1685548188390775600,1.033775634765625,0.06693337857723236,0.04368559271097183,-0.009686577133834362
1685548188410775600,1.053775634765625,0.06569419056177139,0.06743951886892319,-0.0354301854968071
1685548188430775600,1.073775634765625,0.060528017580509186,0.04858996719121933,-0.04180063679814339
1685548188450775600,1.093775634765625,0.04628613218665123,-0.003577925032004714,-0.027087509632110596
1685548188470775600,1.113775634765625,0.015149458311498165,-0.01797689124941826,-0.00783652812242508
1685548188490775600,1.133775634765625,0.02263692021369934,0.026598818600177765,-0.008569566532969475
1685548188510775600,1.153775634765625,0.059637900441884995,0.06253514438867569,-0.02139773592352867
1685548188530775600,1.173775634765625,0.07440338283777237,0.04539601504802704,-0.016231561079621315
1685548188550775600,1.193775634765625,0.05167919769883156,0.009354964829981327,0.007801621686667204
1685548188570777300,1.21377734375,0.026965336874127388,-0.018483037129044533,0.03064798191189766
1685548188590777300,1.23377734375,0.028204521164298058,-0.018622662872076035,0.01589994877576828
1685548188610775600,1.253775634765625,0.0437728576362133,0.01333431527018547,-0.018483037129044533
1685548188630793000,1.27379296875,0.04899139329791069,0.019076447933912277,-0.0348542258143425
1685548188650775600,1.293775634765625,0.0285186804831028,-0.01448623277246952,-0.023579398170113564
1685548188670775600,1.313775634765625,0.0068765971809625626,-0.019076447933912277,-0.0013089969288557768
1685548188690775600,1.333775634765625,-0.00029670598451048136,-0.019896753132343292,-0.005742133129388094
1685548188710775600,1.353775634765625,-0.004590216092765331,-0.024556782096624374,-0.013596114702522755
1685548188730775600,1.373775634765625,-0.002687806962057948,-0.019826939329504967,0.006126105785369873
1685548188750775600,1.393775634765625,0.009180432185530663,0.00008726646046852693,0.01061160210520029
1685548188770775600,1.413775634765625,0.02099631167948246,0.012810716405510902,-0.0009075712296180427
1685548188790775600,1.433775634765625,0.015585790388286114,0.003630284918472171,0.001343903481028974
1685548188810775600,1.453775634765625,0.004642575979232788,-0.010489428415894508,0.007819075137376785
1685548188830775600,1.473775634765625,0.0016755161341279745,-0.00010471975838299841,-0.005846852902323008
1685548188850775600,1.493775634765625,0.01417207345366478,-0.007173303049057722,-0.008709193207323551
1685548188870786600,1.51378662109375,0.04188790172338486,-0.03263765573501587,-0.0030717793852090836
1685548188890775600,1.533775634765625,0.03597123548388481,-0.019390607252717018,0.009581857360899448
1685548188910775600,1.553775634765625,0.012688543647527695,0.0009773843921720982,0.024347342550754547
1685548188930775600,1.573775634765625,0.00457276264205575,0.009930923581123352,0.03445279970765114
1685548188950775600,1.593775634765625,0.002914699725806713,0.0038397242315113544,0.02480112947523594
1685548188970775600,1.613775634765625,-0.0027925267349928617,-0.0010646508308127522,0.002199114765971899
1685548188990775600,1.633775634765625,-0.007295476272702217,-0.005619960371404886,-0.020891591906547546
1685548189010775600,1.653775634765625,-0.018814649432897568,-0.014748032204806805,-0.05550146847963333
1685548189030775600,1.673775634765625,-0.023177972063422203,-0.02839650772511959,-0.05106833204627037
1685548189050775600,1.693775634765625,-0.015463616698980331,-0.01005309633910656,0.0036826448049396276
1685548189070775600,1.713775634765625,0.004241149872541428,0.018849555402994156,0.02197369560599327
1685548189090775600,1.733775634765625,0.0023561944253742695,0.006702064536511898,0.0007679448463022709
1685548189110775600,1.753775634765625,-0.027139870449900627,-0.01563815027475357,-0.004066617228090763
1685548189130775600,1.773775634765625,-0.027750734239816666,-0.006544984877109528,0.023055799305438995
1685548189150775600,1.793775634765625,-0.0044156829826533794,-0.003717551240697503,0.03534291684627533
1685548189170775600,1.813775634765625,0.0005934119690209627,-0.0017104226863011718,0.01825614459812641
1685548189190775600,1.833775634765625,-0.0037000980228185654,0.0004886921960860491,0.0023561944253742695
1685548189210775600,1.853775634765625,-0.004642575979232788,0.013805554248392582,0.0014486232539638877
1685548189230775600,1.873775634765625,-0.0009599310578778386,0.02134537696838379,-0.006405358202755451
1685548189250775600,1.893775634765625,-0.008883725851774216,0.01342158205807209,-0.015219271183013916
1685548189270775600,1.913775634765625,-0.021642083302140236,0.0068765971809625626,-0.0037000980228185654
1685548189290775600,1.933775634765625,-0.02577851340174675,-0.0006457717972807586,-0.00296705961227417
1685548189310775600,1.953775634765625,-0.0159872155636549,-0.005340707488358021,-0.016859879717230797
1685548189330793000,1.97379296875,-0.012444197200238705,0.019024088978767395,-0.011466813273727894
1685548189350775600,1.993775634765625,-0.012164944782853127,0.037891097366809845,0.007400196045637131
1685548189370775600,2.013775634765625,-0.0263544712215662,0.008098327554762363,0.0154810706153512
1685548189390775600,2.033775634765625,-0.042271874845027924,-0.0011693706037476659,0.018099064007401466
1685548189410775600,2.053775634765625,-0.028955012559890747,0.00678933085873723,0.017208946868777275
1685548189430775600,2.073775634765625,-0.003176499158143997,0.013212142512202263,0.00823795422911644
1685548189450775600,2.093775634765625,-0.00331612559966743,0.0037000980228185654,0.0012740903766825795
1685548189470775600,2.113775634765625,0.0023561944253742695,0.013526301831007004,0.022130774334073067
1685548189490775600,2.133775634765625,0.01286307629197836,0.02750638872385025,0.03136356547474861
1685548189510775600,2.153775634765625,0.012252211570739746,0.021851522848010063,0.010105456225574017
1685548189530775600,2.173775634765625,-0.00019198621157556772,0.007208209950476885,0.004014257341623306
1685548189550775600,2.193775634765625,-0.005113814491778612,0.004468042869120836,0.02857103943824768
1685548189570775600,2.213775634765625,0.010995574295520782,-0.01705186627805233,0.026319565251469612
1685548189590775600,2.233775634765625,0.022392574697732925,-0.008639379404485226,-0.010000736452639103
1685548189610777300,2.25377734375,0.0010821041651070118,0.014102260582149029,-0.014817845076322556
1685548189630775600,2.273775634765625,-0.0073129297234117985,0.020402899011969566,0.025446901097893715
1685548189650775600,2.293775634765625,0.008168140426278114,0.007888888008892536,0.04775220900774002
1685548189670775600,2.313775634765625,0.014154620468616486,-0.0051312679424881935,0.025150194764137268
1685548189690775600,2.333775634765625,0.008360126987099648,-0.006597344763576984,0.014032446779310703
1685548189710775600,2.353775634765625,0.004188789986073971,-0.011623892933130264,0.029112091287970543
1685548189730775600,2.373775634765625,-0.008674286305904388,-0.01532399095594883,0.03508111834526062
1685548189750775600,2.393775634765625,-0.015690509229898453,0.014817845076322556,0.05506513640284538
1685548189770775600,2.413775634765625,-0.014870204962790012,0.03415609151124954,0.07274532318115234
1685548189790775600,2.433775634765625,-0.006911503616720438,0.016755159944295883,0.054279740899801254
1685548189810775600,2.453775634765625,-0.01104793418198824,-0.027471482753753662,0.04155628755688667
1685548189830775600,2.473775634765625,-0.0033684854861348867,-0.08147197216749191,0.04525638744235039
1685548189850775600,2.493775634765625,0.024294983595609665,-0.08176867663860321,0.021450096741318703
1685548189870775600,2.513775634765625,0.03525565192103386,-0.2683967351913452,-0.04904375225305557
1685548189890775600,2.533775634765625,0.06173229590058327,-0.10115928202867508,0.003577925032004714
1685548189910775600,2.553775634765625,0.02321287989616394,-0.11063642054796219,0.004921828396618366
1685548189930775600,2.573775634765625,-0.0018675023457035422,-0.043476153165102005,0.014765485189855099
1685548189950775600,2.593775634765625,0.006352998316287994,-0.06332054734230042,0.003089232835918665
1685548189970777300,2.61377734375,-0.0020943949930369854,-0.031014500185847282,0.011815878562629223
1685548189990775600,2.633775634765625,-0.02808234840631485,-0.008691739290952682,0.017435839399695396
1685548190010775600,2.653775634765625,-0.03752457723021507,-0.002373647876083851,0.014538592658936977
1685548190030793000,2.67379296875,-0.04558800160884857,-0.017592918127775192,0.016196655109524727
1685548190050775600,2.693775634765625,-0.06195918843150139,-0.01940806210041046,0.013753194361925125
1685548190070775600,2.713775634765625,-0.06091199070215225,-0.02209586836397648,-0.0021293016616255045
1685548190090775600,2.733775634765625,-0.046617742627859116,-0.020664697512984276,-0.013735741376876831
1685548190110775600,2.753775634765625,-0.030194196850061417,-0.11096803098917007,-0.024486970156431198
1685548190130775600,2.773775634765625,0.028867745772004128,-0.40947169065475464,-0.25076889991760254
1685548190150775600,2.793775634765625,0.20312142372131348,-0.5386435389518738,-0.48171088099479675
1685548190170775600,2.813775634765625,0.27981117367744446,-0.7208558917045593,-0.4879591464996338
1685548190190775600,2.833775634765625,0.24792401492595673,-0.8396953344345093,-0.4152836501598358
1685548190210775600,2.853775634765625,0.19518016278743744,-0.5464800596237183,-0.29850366711616516
1685548190230775600,2.873775634765625,0.13384929299354553,-0.34234634041786194,-0.11943288147449493
1685548190250775600,2.893775634765625,0.025237461552023888,-0.1722290962934494,0.06820746511220932
1685548190270775600,2.913775634765625,-0.0740194097161293,0.019320795312523842,0.1940980702638626
1685548190290775600,2.933775634765625,-0.09581857919692993,0.027227135375142097,0.3156777024269104
1685548190310775600,2.953775634765625,-0.09065239876508713,-0.03516838327050209,0.4389851987361908
1685548190330775600,2.973775634765625,-0.15749850869178772,0.03857177495956421,0.513877272605896
1685548190350775600,2.993775634765625,-0.20067796111106873,0.18280579149723053,0.5223421454429626
1685548190370775600,3.013775634765625,-0.19531980156898499,0.13788101077079773,0.4708549380302429
1685548190390775600,3.033775634765625,-0.2617644667625427,0.10789625346660614,0.35468581318855286
1685548190410775600,3.053775634765625,-0.38322195410728455,-0.06988298147916794,0.182613804936409
1685548190430775600,3.073775634765625,-0.4012511968612671,-0.2347642332315445,0.07187265902757645
1685548190450775600,3.093775634765625,-0.28618162870407104,-0.29855602979660034,0.010384708642959595
1685548190470775600,3.113775634765625,-0.1284562349319458,-0.1310393214225769,-0.09026842564344406
1685548190490775600,3.133775634765625,0.02754129469394684,0.005340707488358021,-0.19863592088222504
1685548190510775600,3.153775634765625,0.12716469168663025,0.024347342550754547,-0.3194999694824219
1685548190530775600,3.173775634765625,0.20242328941822052,0.016493361443281174,-0.38608428835868835
1685548190550775600,3.193775634765625,0.2339090257883072,0.1537984162569046,-0.3468318283557892
1685548190570775600,3.213775634765625,0.21076595783233643,0.21252873539924622,-0.270805299282074
1685548190590775600,3.233775634765625,0.17156586050987244,0.11486011743545532,-0.21060888469219208
1685548190610775600,3.253775634765625,0.16746434569358826,0.0342782661318779,-0.17587682604789734
1685548190630775600,3.273775634765625,0.1411273181438446,-0.06370452046394348,-0.16772614419460297
1685548190650775600,3.293775634765625,0.08363617956638336,-0.09231046587228775,-0.1621759980916977
1685548190670775600,3.313775634765625,0.019250981509685516,-0.15908676385879517,-0.19634954631328583
1685548190690775600,3.333775634765625,-0.003455751808360219,-0.23972097039222717,-0.23352505266666412
1685548190710775600,3.353775634765625,-0.07590436935424805,-0.19161969423294067,-0.26172956824302673
1685548190730793000,3.37379296875,-0.0823620855808258,-0.19706512987613678,-0.32883748412132263
1685548190750775600,3.393775634765625,-0.01780235767364502,-0.1589994877576828,-0.35435420274734497
1685548190770775600,3.413775634765625,0.08321730047464371,-0.14435617625713348,-0.2663896083831787
1685548190790777300,3.43377734375,0.11630874127149582,-0.06257005035877228,-0.1287529319524765
1685548190810777300,3.45377734375,0.12421508133411407,0.02157226949930191,-0.1123293936252594
1685548190830777300,3.47377734375,0.3023608326911926,0.09655161201953888,-0.07450810819864273
1685548190850775600,3.493775634765625,0.5664640665054321,0.16697564721107483,-0.018448129296302795
1685548190870775600,3.513775634765625,0.493160218000412,0.3855955898761749,0.07688175141811371
1685548190890775600,3.533775634765625,0.2376265823841095,0.3297101557254791,0.20748473703861237
1685548190910775600,3.553775634765625,0.06082472577691078,0.2044827789068222,0.10379473119974136
1685548190930775600,3.573775634765625,-0.01326450239866972,0.26230552792549133,0.020315632224082947
1685548190950775600,3.593775634765625,0.04490732029080391,0.2926742732524872,0.06476917117834091
1685548190970775600,3.613775634765625,0.15690509974956512,0.21275563538074493,0.07991862297058105
1685548190990775600,3.633775634765625,0.19228293001651764,0.22069688141345978,0.12226031720638275
1685548191010775600,3.653775634765625,0.14646802842617035,0.29127800464630127,0.13494886457920074
1685548191030775600,3.673775634765625,0.13013175129890442,0.2765299677848816,0.1143539696931839
1685548191050777300,3.69377734375,0.1264491081237793,0.23148301243782043,0.0791855901479721
1685548191070775600,3.713775634765625,0.036966074258089066,0.22136010229587555,0.03511602431535721
1685548191090775600,3.733775634765625,-0.06986553221940994,0.10458012670278549,0.011222466826438904
1685548191110775600,3.753775634765625,-0.05656611919403076,-0.04673991724848747,-0.02125811018049717
1685548191130775600,3.773775634765625,0.01335176918655634,0.08782497048377991,0.0013962633674964309
1685548191150775600,3.793775634765625,0.1273217648267746,0.12351694703102112,0.017016960307955742
1685548191170775600,3.813775634765625,0.09442231059074402,-0.01441641990095377,0.0843866690993309
1685548191190775600,3.833775634765625,-0.09463175386190414,-0.06405358016490936,0.029356438666582108
1685548191210775600,3.853775634765625,-0.1477595716714859,-0.09847147762775421,0.013247049413621426
1685548191230775600,3.873775634765625,-0.10506881773471832,-0.059550635516643524,0.030613074079155922
1685548191250775600,3.893775634765625,-0.13812536001205444,-0.04490732029080391,0.06438519805669785
1685548191270775600,3.913775634765625,-0.2442064732313156,0.015707964077591896,0.06918485462665558
1685548191290775600,3.933775634765625,-0.25850072503089905,0.047996554523706436,0.07435102760791779
1685548191310775600,3.953775634765625,-0.26975807547569275,-0.012095131911337376,0.09601055830717087
1685548191330775600,3.973775634765625,-0.24069835245609283,-0.005201081279665232,0.12927654385566711
1685548191350775600,3.993775634765625,-0.022113321349024773,0.07593927532434464,0.1374097764492035
1685548191370775600,4.013775634765625,-0.03335324302315712,0.13915510475635529,0.062203533947467804
1685548191390775600,4.033775634765625,-0.20008455216884613,0.11932816356420517,0.08403760194778442
1685548191410775600,4.053775634765625,-0.29763099551200867,-0.03082251362502575,0.15624187886714935
1685548191430775600,4.073775634765625,-0.21525146067142487,-0.060562923550605774,0.15098842978477478
1685548191450775600,4.093775634765625,-0.10421361029148102,-0.029600784182548523,0.04518657550215721
1685548191470775600,4.113775634765625,-0.045465826988220215,0.015777776017785072,-0.044802602380514145
1685548191490775600,4.133775634765625,-0.003525565145537257,-0.005567600484937429,-0.09136798232793808
1685548191510775600,4.153775634765625,-0.005218534264713526,-0.01595230959355831,-0.09255480766296387
1685548191530775600,4.173775634765625,-0.0302465558052063,-0.032794736325740814,-0.06407103687524796
1685548191550775600,4.193775634765625,-0.03635520860552788,-0.014311700128018856,-0.06665412336587906
1685548191570775600,4.213775634765625,-0.02546435408294201,0.0076445420272648335,-0.05523966997861862
1685548191590775600,4.233775634765625,-0.01970476657152176,-0.0033859387040138245,-0.02843141369521618
1685548191610775600,4.253775634765625,-0.04946263134479523,-0.013857914134860039,-0.008831365965306759
1685548191630777300,4.27377734375,-0.06384414434432983,0.03464478626847267,0.018064158037304878
1685548191650777300,4.29377734375,-0.021956242620944977,0.07974409312009811,0.021380282938480377
1685548191670775600,4.313775634765625,-0.020367993041872978,0.07756242901086807,-0.004188789986073971
1685548191690775600,4.333775634765625,-0.05482079088687897,0.057560957968235016,0.024923302233219147
1685548191710775600,4.353775634765625,-0.04811872914433479,0.03190461918711662,0.05852089077234268
1685548191730775600,4.373775634765625,0.0006806784076616168,0.03132865950465202,0.04848524555563927
1685548191750777300,4.39377734375,0.049270644783973694,0.048345621675252914,-0.02361430414021015
1685548191770775600,4.413775634765625,0.06773623079061508,0.05052728205919266,-0.055606190115213394
1685548191790775600,4.433775634765625,0.05522221699357033,0.018395770341157913,-0.035587262362241745
1685548191810775600,4.453775634765625,-0.0077841682359576225,0.013072515837848186,-0.035726889967918396
1685548191830775600,4.473775634765625,-0.04879940673708916,0.04429645463824272,-0.03785619139671326
1685548191850775600,4.493775634765625,-0.031066861003637314,0.035011306405067444,-0.03176499158143997
1685548191870775600,4.513775634765625,-0.01136209350079298,0.04132939502596855,-0.015428710728883743
1685548191890775600,4.533775634765625,0.00427605677396059,0.022078415378928185,-0.02267182618379593
1685548191910775600,4.553775634765625,0.0012391837080940604,0.011920598335564137,-0.029653143137693405
1685548191930775600,4.573775634765625,-0.03127630054950714,0.018343409523367882,-0.01748819835484028
1685548191950775600,4.593775634765625,-0.05019566789269447,0.027488935738801956,0.016999507322907448
1685548191970775600,4.613775634765625,-0.04049163684248924,0.030805060639977455,0.046216320246458054
1685548191990775600,4.633775634765625,-0.025569073855876923,0.02750638872385025,0.06592108309268951
1685548192010775600,4.653775634765625,-0.01886700838804245,0.033423054963350296,0.047507863491773605
1685548192030775600,4.673775634765625,-0.01408480666577816,0.05115560069680214,0.031817350536584854
1685548192050775600,4.693775634765625,-0.015742870047688484,0.02724459022283554,0.022218041121959686
1685548192070775600,4.713775634765625,-0.018064158037304878,-0.0022689281031489372,0.01740093342959881
1685548192090775600,4.733775634765625,-0.03387684002518654,0.010594148188829422,0.011920598335564137
1685548192110775600,4.753775634765625,-0.04213224723935127,0.036250486969947815,-0.0057246801443398
1685548192130775600,4.773775634765625,-0.04703662171959877,0.05311036854982376,-0.03344050794839859
1685548192150777300,4.79377734375,-0.04708898440003395,0.06923720985651016,-0.03316125646233559
1685548192170775600,4.813775634765625,-0.0357094369828701,0.05621705576777458,-0.01171115878969431
1685548192190775600,4.833775634765625,-0.03131120651960373,0.027401668950915337,-0.00823795422911644
1685548192210775600,4.853775634765625,-0.015376350842416286,0.03300417587161064,-0.011484266258776188
1685548192230775600,4.873775634765625,-0.014870204962790012,0.047682393342256546,-0.019565140828490257
1685548192250775600,4.893775634765625,-0.011431906372308731,0.034522611647844315,-0.011466813273727894
1685548192270775600,4.913775634765625,-0.009320057928562164,0.01785471849143505,-0.0033335788175463676
1685548192290775600,4.933775634765625,0.00041887903353199363,0.011222466826438904,-0.005358160939067602
1685548192310775600,4.953775634765625,0.014137166552245617,-0.005777040030807257,-0.016580628231167793
1685548192330775600,4.973775634765625,0.01633628085255623,-0.0020769417751580477,-0.013700834475457668
1685548192350775600,4.993775634765625,0.0019373154500499368,0.019565140828490257,-0.009826203808188438
1685548192370775600,5.013775634765625,-0.0022165682166814804,0.02724459022283554,-0.0015009831404313445
1685548192390775600,5.033775634765625,-0.0030194194987416267,0.04164355620741844,0.007260569836944342
1685548192410775600,5.053775634765625,-0.028850292786955833,0.029914943501353264,0.003996803890913725
1685548192430775600,5.073775634765625,-0.05258677154779434,0.018727382645010948,0.01727875880897045
1685548192450777300,5.09377734375,-0.03841469809412956,0.023492131382226944,0.0213104709982872
1685548192470777300,5.11377734375,-0.004747295752167702,0.02715732343494892,0.00015707963029854
1685548192490775600,5.133775634765625,0.021153390407562256,0.0067544239573180676,-0.031293753534555435
1685548192510775600,5.153775634765625,0.01851794309914112,0.019774580374360085,-0.03588397055864334
1685548192530775600,5.173775634765625,0.015446163713932037,0.0074525559321045876,-0.01979203335940838
1685548192550777300,5.19377734375,0.025045474991202354,-0.02263692021369934,-0.027262043207883835
1685548192570777300,5.21377734375,0.012653636746108532,-0.007714355364441872,-0.029338983818888664
1685548192590775600,5.233775634765625,-0.015707964077591896,0.004171337001025677,-0.005096361506730318
1685548192610775600,5.253775634765625,-0.004345869645476341,-0.002286381321027875,0.028989918529987335
1685548192630775600,5.273775634765625,0.015917403623461723,0.011554080061614513,0.02830924093723297
1685548192650775600,5.293775634765625,0.025569073855876923,0.0008552113431505859,0.004293509759008884
1685548192670775600,5.313775634765625,0.016842426732182503,-0.016266468912363052,-0.021415190771222115
1685548192690775600,5.333775634765625,0.017383478581905365,-0.0246265958994627,-0.03441789373755455
1685548192710775600,5.353775634765625,0.004206243436783552,-0.021380282938480377,-0.030717793852090836
1685548192730775600,5.373775634765625,-0.007679448463022709,0.010332348756492138,0.002914699725806713
1685548192750775600,5.393775634765625,-0.01926843449473381,0.015446163713932037,0.03176499158143997
1685548192770775600,5.413775634765625,-0.011571533046662807,0.013840461149811745,0.020751964300870895
1685548192790775600,5.433775634765625,-0.0012217304902151227,0.02200860157608986,-0.010751227848231792
1685548192810777300,5.45377734375,0.001658062799833715,0.016510814428329468,-0.02188642881810665
1685548192830775600,5.473775634765625,0.0036651913542300463,-0.004450589418411255,-0.005358160939067602
1685548192850775600,5.493775634765625,0.007731808349490166,0.007661995477974415,-0.0006806784076616168
1685548192870775600,5.513775634765625,0.020210912451148033,0.010663961991667747,-0.021240657195448875
1685548192890775600,5.533775634765625,0.015201817266643047,0.0246265958994627,-0.01953023485839367
1685548192910775600,5.553775634765625,0.0009599310578778386,0.013316862285137177,-0.004014257341623306
1685548192930775600,5.573775634765625,-0.018744835630059242,0.011379546485841274,-0.0017627825727686286
1685548192950775600,5.593775634765625,-0.03132865950465202,0.010751227848231792,-0.00038397242315113544
1685548192970775600,5.613775634765625,-0.03269001841545105,0.006806783843785524,0.005218534264713526
1685548192990775600,5.633775634765625,-0.03159045800566673,-0.0037350046914070845,-0.006143558770418167
1685548193010775600,5.653775634765625,-0.015201817266643047,0.0005585053586401045,-0.0091455252841115
1685548193030775600,5.673775634765625,-0.004066617228090763,0.010925761424005032,-0.025045474991202354
1685548193050775600,5.693775634765625,0.0017802357906475663,0.02782054804265499,-0.03335324302315712
1685548193070775600,5.713775634765625,0.0057246801443398,0.020141098648309708,-0.02042035199701786
1685548193090775600,5.733775634765625,0.009477137587964535,0.010419615544378757,0.003577925032004714
1685548193110775600,5.753775634765625,0.006702064536511898,0.023335052654147148,0.02949606440961361
1685548193130775600,5.773775634765625,0.0003316125657875091,0.01975712738931179,0.020437804982066154
1685548193150775600,5.793775634765625,-0.0008028514566831291,0.019861847162246704,0.0038397242315113544
1685548193170775600,5.813775634765625,-0.008621926419436932,0.022165682166814804,-0.0028623400721699
1685548193190775600,5.833775634765625,-0.02958333119750023,0.02263692021369934,0.018587756901979446
1685548193210775600,5.853775634765625,-0.039793506264686584,0.022392574697732925,0.04885176569223404
1685548193230775600,5.873775634765625,-0.04164355620741844,0.02825688011944294,0.032096605747938156
1685548193250775600,5.893775634765625,-0.017418386414647102,0.0420449823141098,-0.00890117883682251
1685548193270775600,5.913775634765625,-0.002234021434560418,0.05803219601511955,-0.012810716405510902
1685548193290775600,5.933775634765625,0.0018500490114092827,0.041119955480098724,0.007592182140797377
1685548193310775600,5.953775634765625,0.020926497876644135,0.007609635591506958,-0.004345869645476341
1685548193330777300,5.97377734375,0.01762782596051693,0.0131772356107831,-0.020490165799856186
1685548193350775600,5.993775634765625,-0.001972222002223134,0.05612978711724281,0.012705996632575989
1685548193370775600,6.013775634765625,0.0015358896926045418,0.05878268927335739,0.03464478626847267
1685548193390775600,6.033775634765625,0.013631021603941917,0.05017821490764618,0.028448866680264473
1685548193410775600,6.053775634765625,0.034033920615911484,0.05522221699357033,0.032358404248952866
1685548193430775600,6.073775634765625,0.04195771366357803,0.060964349657297134,0.015306537039577961
1685548193450775600,6.093775634765625,0.03885103017091751,0.046966809779405594,-0.009808750823140144
1685548193470775600,6.113775634765625,0.022706734016537666,0.03317870944738388,-0.017156586050987244
1685548193490775600,6.133775634765625,0.012880530208349228,0.03499384969472885,0.033457960933446884
1685548193510775600,6.153775634765625,0.0008377580670639873,0.05572836101055145,0.08101818710565567
1685548193530775600,6.173775634765625,-0.03263765573501587,0.05811946466565132,0.08215264976024628
1685548193550775600,6.193775634765625,-0.053791046142578125,0.06660176068544388,0.07283259183168411
1685548193570775600,6.213775634765625,-0.049672070890665054,0.08073893189430237,0.05982988700270653
1685548193590775600,6.233775634765625,-0.0073129297234117985,0.05836381018161774,0.030752701684832573
1685548193610777300,6.25377734375,0.04199262335896492,0.0285186804831028,0.0154810706153512
1685548193630777300,6.27377734375,0.07087782025337219,-0.0011519172694534063,0.006195918656885624
1685548193650775600,6.293775634765625,0.04640830308198929,0.011082841083407402,0.016493361443281174
1685548193670775600,6.313775634765625,-0.0040317103266716,0.05682792142033577,0.049497537314891815
1685548193690775600,6.333775634765625,-0.05037020146846771,0.07435102760791779,0.05274384841322899
1685548193710775600,6.353775634765625,-0.062081363052129745,0.07169812172651291,0.038205258548259735
1685548193730777300,6.37377734375,-0.039793506264686584,0.06614797562360764,0.03796090930700302
1685548193750777300,6.39377734375,-0.01846558414399624,0.03272492438554764,0.02741912193596363
1685548193770777300,6.41377734375,-0.008220500312745571,0.0018675023457035422,0.0010995573829859495
1685548193790777300,6.43377734375,0.010506882332265377,-0.007260569836944342,-0.023998277261853218
1685548193810775600,6.453775634765625,0.02457423508167267,-0.004450589418411255,-0.02342231757938862
1685548193830775600,6.473775634765625,0.004363323096185923,0.024870941415429115,0.011588986031711102
1685548193850777300,6.49377734375,0.011850785464048386,0.01507964450865984,0.007557275705039501
1685548193870777300,6.51377734375,0.030927233397960663,0.0011344640515744686,-0.01682497374713421
1685548193890777300,6.53377734375,0.04960225895047188,0.01909390278160572,-0.012653636746108532
1685548193910775600,6.553775634765625,0.050963614135980606,0.01251401100307703,-0.007504915818572044
1685548193930775600,6.573775634765625,0.05218534544110298,-0.030892327427864075,-0.009564404375851154
1685548193950775600,6.593775634765625,0.04317944496870041,-0.0293738916516304,-0.005951572675257921
1685548193970775600,6.613775634765625,0.02759365551173687,0.0190066359937191,0.043022364377975464
1685548193990775600,6.633775634765625,0.017261305823922157,0.03834488242864609,0.08028514683246613
1685548194010775600,6.653775634765625,0.014678219333291054,0.02174680307507515,0.059725165367126465
1685548194030775600,6.673775634765625,0.03649483621120453,0.02267182618379593,0.035325463861227036
1685548194050775600,6.693775634765625,0.05504768341779709,0.009075712412595749,0.022933626547455788
1685548194070777300,6.71377734375,0.05956808850169182,0.008970992639660835,0.004694935865700245
1685548194090777300,6.73377734375,0.06326818466186523,-0.015742870047688484,-0.0979304239153862
1685548194110775600,6.753775634765625,0.06995279341936111,-0.05281366407871246,-0.17880898714065552
1685548194130775600,6.773775634765625,0.04080579802393913,-0.030944688245654106,-0.10318386554718018
1685548194150775600,6.793775634765625,-0.017156586050987244,0.012496557086706161,0.0653800368309021
1685548194170775600,6.813775634765625,-0.07106980681419373,0.045692719519138336,0.1785995364189148
1685548194190775600,6.833775634765625,-0.07764969766139984,0.0645248219370842,0.1512502282857895
1685548194210777300,6.85377734375,-0.04511675983667374,0.06407103687524796,0.04501204192638397
1685548194230775600,6.873775634765625,-0.0031415927223861217,0.04022983834147453,-0.06126105785369873
1685548194250775600,6.893775634765625,0.043074727058410645,-0.01740093342959881,-0.12520991265773773
1685548194270775600,6.913775634765625,0.07754497975111008,-0.020961403846740723,-0.1146506816148758
1685548194290775600,6.933775634765625,0.06773623079061508,-0.00013962633966002613,-0.06782349199056625
1685548194310775600,6.953775634765625,0.02200860157608986,-0.0019896754529327154,-0.02984512969851494
1685548194330775600,6.973775634765625,-0.01679006777703762,-0.0030717793852090836,-0.006928957067430019
1685548194350775600,6.993775634765625,-0.029967302456498146,0.01539380382746458,0.05637413635849953
1685548194370775600,7.013775634765625,-0.026232298463582993,0.04766494035720825,0.13144074380397797
1685548194390777300,7.03377734375,-0.03200933709740639,0.025132741779088974,0.11585495620965958
1685548194410775600,7.053775634765625,-0.031555552035570145,-0.00022689280740451068,0.06241297349333763
1685548194430777300,7.07377734375,0.00808087456971407,-0.008325220085680485,0.0011519172694534063
1685548194450775600,7.093775634765625,0.051626838743686676,-0.029426250606775284,-0.04749041050672531
1685548194470775600,7.113775634765625,0.05408775433897972,-0.037053339183330536,-0.07724827527999878
1685548194490775600,7.133775634765625,0.023055799305438995,-0.03907792270183563,-0.06541494280099869
1685548194510775600,7.153775634765625,-0.022305307909846306,-0.040020398795604706,-0.024696409702301025
1685548194530775600,7.173775634765625,-0.0780685767531395,-0.00047123889089562,0.038868483155965805
1685548194550775600,7.193775634765625,-0.09794788062572479,0.024521876126527786,0.0734434574842453
1685548194570775600,7.213775634765625,-0.07969173043966293,0.019949113950133324,0.05614724010229111
1685548194590775600,7.233775634765625,-0.051574479788541794,0.011588986031711102,0.03384193405508995
1685548194610775600,7.253775634765625,-0.027890361845493317,-0.000017453292457503267,0.005462880712002516
1685548194630775600,7.273775634765625,-0.003508111694827676,-0.013857914134860039,-0.02183406800031662
1685548194650775600,7.293775634765625,-0.00015707963029854,-0.01104793418198824,-0.02139773592352867
1685548194670775600,7.313775634765625,-0.013089969754219055,-0.00457276264205575,0.01335176918655634
1685548194690775600,7.333775634765625,-0.015934856608510017,0.015254177153110504,0.05777039751410484
1685548194710775600,7.353775634765625,0.0024085543118417263,0.014905111864209175,0.05794493108987808
1685548194730775600,7.373775634765625,0.01302015595138073,0.013561207801103592,0.019547687843441963
1685548194750775600,7.393775634765625,0.014835298992693424,0.02984512969851494,-0.02502802200615406
1685548194770775600,7.413775634765625,0.006597344763576984,0.028187068179249763,-0.052324969321489334
1685548194790775600,7.433775634765625,-0.006230825558304787,0.02090904489159584,-0.04096287861466408
1685548194810775600,7.453775634765625,-0.01748819835484028,0.03378957509994507,-0.012880530208349228
1685548194830775600,7.473775634765625,0.006195918656885624,0.02776818908751011,0.02007128670811653
1685548194850775600,7.493775634765625,0.021711895242333412,0.02860594540834427,0.013002702966332436
1685548194870777300,7.51377734375,0.021415190771222115,0.04412192478775978,0.007731808349490166
1685548194890775600,7.533775634765625,0.036477379500865936,0.036651913076639175,0.02206096239387989
1685548194910775600,7.553775634765625,0.045989423990249634,0.01993165910243988,0.01771509274840355
1685548194930775600,7.573775634765625,0.04885176569223404,0.00609119888395071,-0.0035953782498836517
1685548194950777300,7.59377734375,0.042673300951719284,0.011100294068455696,-0.01219985168427229
1685548194970775600,7.613775634765625,0.025935592129826546,0.006963863503187895,0.0037873645778745413
1685548194990777300,7.63377734375,-0.0005759586347267032,0.017819812521338463,0.02773328125476837
1685548195010775600,7.653775634765625,-0.019896753132343292,0.03166027367115021,0.053127821534872055
1685548195030775600,7.673775634765625,-0.01953023485839367,0.036686819046735764,0.0561646968126297
1685548195050775600,7.693775634765625,-0.007661995477974415,0.010995574295520782,0.029880037531256676
1685548195070775600,7.713775634765625,0.00724311638623476,-0.010489428415894508,-0.019861847162246704
1685548195090775600,7.733775634765625,0.027925267815589905,-0.026773350313305855,-0.06157521530985832
1685548195110775600,7.753775634765625,0.035185836255550385,-0.009564404375851154,-0.039269909262657166
1685548195130775600,7.773775634765625,0.009075712412595749,-0.014608405530452728,-0.003228859044611454
1685548195150775600,7.793775634765625,-0.00945968460291624,-0.018343409523367882,0.03769911080598831
1685548195170775600,7.813775634765625,-0.0034382985904812813,-0.003054326167330146,0.04544837400317192
1685548195190775600,7.833775634765625,0.0015707963611930609,-0.00923279207199812,0.015446163713932037
1685548195210777300,7.85377734375,-0.0019547687843441963,-0.001483529806137085,0.008866272866725922
1685548195230775600,7.873775634765625,-0.004171337001025677,0.017732545733451843,0.03162536770105362
1685548195250775600,7.893775634765625,-0.00029670598451048136,0.014189526438713074,0.025010569021105766
1685548195270775600,7.913775634765625,0.018291050568223,-0.013700834475457668,-0.04284783452749252
1685548195290777300,7.93377734375,0.03991568088531494,-0.03447025269269943,-0.07895869761705399
1685548195310775600,7.953775634765625,0.014311700128018856,-0.04504694789648056,-0.06417575478553772
1685548195330775600,7.973775634765625,0.0016755161341279745,-0.031293753534555435,0.0009250245057046413
1685548195350775600,7.993775634765625,-0.009616764262318611,0.011641345918178558,0.02750638872385025
1685548195370775600,8.013775634765626,-0.01745329238474369,-0.002949606394395232,-0.0024085543118417263
1685548195390775600,8.033775634765625,-0.023771384730935097,-0.022916173562407494,-0.01918116770684719
1685548195410775600,8.053775634765625,-0.021327923983335495,0.004450589418411255,0.015132004395127296
1685548195430775600,8.073775634765624,-0.023020893335342407,-0.01589994877576828,-0.02050761878490448
1685548195450775600,8.093775634765626,-0.014503685757517815,-0.054908059537410736,-0.07585200667381287
1685548195470775600,8.113775634765625,-0.013997540809214115,-0.013281955383718014,-0.023841196671128273
1685548195490775600,8.133775634765625,-0.029199358075857162,0.010821041651070118,0.04297000542283058
1685548195510775600,8.153775634765625,-0.047368235886096954,0.0017627825727686286,0.0385892279446125
1685548195530775600,8.173775634765626,-0.04265584796667099,-0.003036872949451208,-0.006684611085802317
1685548195550775600,8.193775634765625,-0.032131511718034744,-0.006667157635092735,-0.05000368133187294
1685548195570775600,8.213775634765625,-0.027698375284671783,-0.02658136375248432,-0.05510004609823227
1685548195590775600,8.233775634765625,-0.004694935865700245,-0.02370157092809677,-0.011222466826438904
1685548195610775600,8.253775634765624,-0.013508847914636135,-0.006440265104174614,0.00008726646046852693
1685548195630775600,8.273775634765625,-0.03640756756067276,-0.01895427517592907,-0.013404129073023796
1685548195650775600,8.293775634765625,-0.042638394981622696,-0.0213104709982872,-0.011885692365467548
1685548195670775600,8.313775634765625,-0.029286624863743782,0.00017453292093705386,0.0055850534699857235
1685548195690777300,8.33377734375,-0.030316369608044624,-0.006230825558304787,0.004084070213139057
1685548195710775600,8.353775634765626,-0.024644048884510994,-0.007853982038795948,0.0005235987482592463
1685548195730775600,8.373775634765625,-0.01966986060142517,-0.028152160346508026,-0.05628686770796776
1685548195750775600,8.393775634765625,-0.00008726646046852693,-0.050649452954530716,-0.09829694032669067
1685548195770775600,8.413775634765624,0.010681414976716042,-0.02148500271141529,-0.05612978711724281
1685548195790775600,8.433775634765626,-0.0017976891249418259,0.0006108652451075613,0.005235987715423107
1685548195810775600,8.453775634765625,-0.008604473434388638,-0.013404129073023796,-0.00617846567183733
1685548195830775600,8.473775634765625,-0.001518436474725604,0.0018675023457035422,-0.02741912193596363
1685548195850775600,8.493775634765624,0.0012042771559208632,0.008813912980258465,-0.008412486873567104
1685548195870775600,8.513775634765626,0.0067544239573180676,-0.03324852138757706,-0.02604031190276146
1685548195890775600,8.533775634765625,0.019739674404263496,-0.023282691836357117,-0.07449065148830414
1685548195910775600,8.553775634765625,0.029042279347777367,-0.004939281847327948,-0.09171704947948456
1685548195930775600,8.573775634765624,0.018186330795288086,-0.005235987715423107,-0.0449247732758522
1685548195950775600,8.593775634765626,0.012985249981284142,0.016091935336589813,0.021031217649579048
1685548195970775600,8.613775634765625,0.0286583062261343,0.013002702966332436,0.03591887652873993
1685548195990777300,8.63377734375,0.04633849114179611,0.003857177682220936,0.006928957067430019
1685548196010775600,8.653775634765625,0.0538608618080616,-0.013212142512202263,-0.027087509632110596
1685548196030775600,8.673775634765626,0.05440191179513931,-0.013404129073023796,-0.03251548483967781
1685548196050775600,8.693775634765625,0.052324969321489334,-0.009162978269159794,-0.019111355766654015
1685548196070775600,8.713775634765625,0.028361599892377853,0.010070549324154854,0.01572541706264019
1685548196090775600,8.733775634765625,0.03263765573501587,0.005846852902323008,0.05434955283999443
1685548196110775600,8.753775634765624,0.03925245627760887,-0.0035604715812951326,0.0285186804831028
1685548196130775600,8.773775634765625,0.06035348400473595,-0.023841196671128273,-0.02975786291062832
1685548196150775600,8.793775634765625,0.07248352468013763,-0.02275909297168255,-0.057246800512075424
1685548196170775600,8.813775634765625,0.06370452046394348,-0.017208946868777275,-0.040997784584760666
1685548196190777300,8.83377734375,0.023806290701031685,0.010489428415894508,0.02572615258395672
1685548196210777300,8.85377734375,-0.0062831854447722435,0.01392772700637579,0.09480628371238708
1685548196230775600,8.873775634765625,-0.006806783843785524,-0.0024260077625513077,0.10332348942756653
1685548196250775600,8.893775634765625,0.022305307909846306,0.017016960307955742,-0.004502949304878712
1685548196270775600,8.913775634765624,0.053040556609630585,-0.005515240598469973,-0.10199704021215439
1685548196290775600,8.933775634765626,0.07394959777593613,0.010646508075296879,-0.05942846089601517
1685548196310775600,8.953775634765625,0.05771803855895996,0.012339477427303791,0.0038397242315113544
1685548196330775600,8.973775634765625,0.061226148158311844,-0.0010646508308127522,0.014137166552245617
1685548196350775600,8.993775634765624,0.0673871636390686,0.0010995573829859495,-0.017243852838873863
1685548196370775600,9.013775634765626,0.0653974860906601,0.0019198621157556772,-0.03232349827885628
1685548196390777300,9.03377734375,0.048171088099479675,0.02480112947523594,-0.005410520825535059
1685548196410775600,9.053775634765625,0.027977628633379936,0.027296949177980423,0.02644173800945282
1685548196430775600,9.073775634765624,0.014660765416920185,0.030839968472719193,0.030141836032271385
1685548196450777300,9.09377734375,0.021554816514253616,0.033108897507190704,0.009686577133834362
1685548196470775600,9.113775634765625,0.021764256060123444,0.004328416660428047,-0.04804891347885132
1685548196490775600,9.133775634765625,0.023998277261853218,-0.017680184915661812,-0.10403907299041748
1685548196510775600,9.153775634765625,0.02094395086169243,0.010471975430846214,-0.08990190923213959
1685548196530775600,9.173775634765626,0.010349802672863007,0.024172810837626457,-0.010035643354058266
1685548196550775600,9.193775634765625,-0.011135200969874859,0.014608405530452728,0.07169812172651291
1685548196570775600,9.213775634765625,-0.019896753132343292,0.05518731102347374,0.10348057001829147
1685548196590775600,9.233775634765625,-0.025673793628811836,0.07764969766139984,0.055169858038425446
1685548196610775600,9.253775634765624,-0.017121680080890656,0.04996877536177635,0.027838001027703285
1685548196630775600,9.273775634765625,-0.014521139673888683,0.023928463459014893,0.029653143137693405
1685548196650775600,9.293775634765625,-0.0018325956771150231,0.011187560856342316,0.014590952545404434
1685548196670775600,9.313775634765625,0.013281955383718014,0.008482299745082855,-0.014590952545404434
1685548196690775600,9.333775634765624,0.003054326167330146,0.007103490177541971,-0.015550883486866951
1685548196710775600,9.353775634765626,-0.03406882658600807,0.010559242218732834,0.03358013555407524
1685548196730775600,9.373775634765625,-0.0725882425904274,0.022828906774520874,0.0593411959707737
1685548196750775600,9.393775634765625,-0.07944738864898682,0.050300389528274536,0.053703781217336655
1685548196770777300,9.41377734375,-0.07457792013883591,0.04180063679814339,0.025394540280103683
1685548196790775600,9.433775634765626,-0.07538077235221863,0.027628561481833458,-0.012793263420462608
1685548196810775600,9.453775634765625,-0.05801474303007126,-0.005235987715423107,-0.0426209419965744
1685548196830775600,9.473775634765625,-0.04459316283464432,-0.007470009382814169,-0.042725659906864166
1685548196850775600,9.493775634765624,-0.032131511718034744,0.015655603259801865,-0.025481807067990303
1685548196870775600,9.513775634765626,-0.02609267272055149,0.017610372975468636,-0.009354964829981327
1685548196890777300,9.53377734375,-0.042097341269254684,0.024836035445332527,0.014206980355083942
1685548196910775600,9.553775634765625,-0.05726425349712372,0.01719149388372898,0.030613074079155922
1685548196930775600,9.573775634765624,-0.04071853309869766,0.009773843921720982,0.019879300147294998
1685548196950775600,9.593775634765626,-0.01846558414399624,0.02134537696838379,0.002286381321027875
1685548196970775600,9.613775634765625,-0.007278022821992636,0.010227628983557224,-0.005829399451613426
1685548196990775600,9.633775634765625,-0.009791296906769276,0.003979350905865431,-0.021188296377658844
1685548197010775600,9.653775634765625,-0.01603957638144493,0.011746065691113472,-0.0337023064494133
1685548197030775600,9.673775634765626,-0.04625122621655464,0.02356194518506527,-0.02727949619293213
1685548197050775600,9.693775634765625,-0.06408849358558655,0.04047418385744095,0.0015009831404313445
1685548197070775600,9.713775634765625,-0.05009094998240471,0.0207345113158226,-0.00989601667970419
1685548197090775600,9.733775634765625,-0.030752701684832573,0.004485496319830418,-0.05431464686989784
1685548197110775600,9.753775634765624,-0.02471386268734932,0.010245082899928093,-0.057595863938331604
1685548197130775600,9.773775634765625,-0.013753194361925125,0.0023038345389068127,-0.02802998758852482
1685548197150775600,9.793775634765625,0.00205948855727911,-0.017069319263100624,-0.010105456225574017
1685548197170775600,9.813775634765625,0.012845623306930065,-0.011815878562629223,-0.005305801052600145
1685548197190775600,9.833775634765624,0.020437804982066154,0.005969026125967503,0.006579891312867403
1685548197210775600,9.853775634765626,0.02546435408294201,0.00015707963029854,0.005148721393197775
1685548197230775600,9.873775634765625,0.011938052251935005,-0.006440265104174614,-0.006352998316287994
1685548197250775600,9.893775634765625,0.002548180753365159,0.021956242620944977,0.00003490658491500653
1685548197270775600,9.913775634765624,-0.0008028514566831291,0.01096066739410162,-0.015760323032736778
1685548197290775600,9.933775634765626,0.008534659631550312,-0.015568336471915245,-0.025987952947616577
1685548197310775600,9.953775634765625,0.010437068529427052,-0.00043633230961859226,-0.0285186804831028
1685548197330775600,9.973775634765625,0.010681414976716042,0.0051312679424881935,-0.03666936606168747
1685548197350775600,9.993775634765624,0.013316862285137177,0.0008028514566831291,-0.013142329640686512
1685548197370775600,10.013775634765626,0.012147491797804832,0.008709193207323551,0.003508111694827676
1685548197390775600,10.033775634765625,0.009564404375851154,-0.0018325956771150231,-0.007278022821992636
1685548197410775600,10.053775634765625,0.021851522848010063,-0.013997540809214115,-0.021816615015268326
1685548197430775600,10.073775634765624,0.021764256060123444,0.0005235987482592463,-0.016353735700249672
1685548197450775600,10.093775634765626,0.02546435408294201,0.021135937422513962,0.023003440350294113
1685548197470775600,10.113775634765625,0.02542944625020027,0.027384215965867043,0.021450096741318703
1685548197490775600,10.133775634765625,0.024347342550754547,0.010629055090248585,-0.03677408769726753
1685548197510775600,10.153775634765625,0.03689625859260559,-0.029618237167596817,-0.10178760439157486
1685548197530775600,10.173775634765626,0.03349286690354347,-0.031014500185847282,-0.11468558758497238
1685548197550775600,10.193775634765625,0.011728612706065178,-0.0028623400721699,-0.013631021603941917
1685548197570775600,10.213775634765625,-0.01904154196381569,0.03553490340709686,0.1264840066432953
1685548197590775600,10.233775634765625,-0.04614650458097458,0.028239427134394646,0.15718434751033783
1685548197610777300,10.25377734375,-0.03490658476948738,-0.026476643979549408,0.03862413763999939
1685548197630775600,10.273775634765625,0.003804817795753479,-0.08201301842927933,-0.09464920312166214
1685548197650775600,10.293775634765625,0.019320795312523842,-0.07370525598526001,-0.1132020577788353
1685548197670775600,10.313775634765625,-0.017505653202533722,-0.031695179641246796,-0.0018325956771150231
1685548197690775600,10.333775634765624,-0.052900929003953934,-0.0006457717972807586,0.09283406287431717
1685548197710775600,10.353775634765626,-0.060266219079494476,-0.023282691836357117,0.026284659281373024
1685548197730775600,10.373775634765625,-0.04686209186911583,-0.058887407183647156,-0.0823795422911644
1685548197750775600,10.393775634765625,-0.027122415602207184,-0.050108402967453,-0.07791149616241455
1685548197770775600,10.413775634765624,-0.04461061581969261,-0.04009021446108818,-0.024068091064691544
1685548197790775600,10.433775634765626,-0.05112069472670555,-0.016179202124476433,0.06241297349333763
1685548197810775600,10.453775634765625,-0.03413863852620125,0.033108897507190704,0.11321950703859329
1685548197830775600,10.473775634765625,-0.037978366017341614,0.019285887479782104,0.020717058330774307
1685548197850775600,10.493775634765624,-0.02860594540834427,-0.020036378875374794,-0.04974188283085823
1685548197870775600,10.513775634765626,0.006003932561725378,-0.04476769641041756,-0.0763406977057457
1685548197890775600,10.533775634765625,0.049898963421583176,-0.056635934859514236,-0.07293730974197388
1685548197910775600,10.553775634765625,0.04132939502596855,-0.005166174378246069,0.006213372107595205
1685548197930785000,10.573784912109375,-0.010349802672863007,0.006579891312867403,0.10204940289258957
1685548197950775600,10.593775634765626,-0.049183379858732224,-0.012304571457207203,0.11773990839719772
1685548197970775600,10.613775634765625,-0.05311036854982376,-0.005619960371404886,0.09056513756513596
1685548197990775600,10.633775634765625,-0.06850416958332062,0.023666664958000183,0.07562511414289474
1685548198010775600,10.653775634765625,-0.09939649701118469,-0.012042772024869919,0.023684117943048477
1685548198030775600,10.673775634765626,-0.11534880846738815,-0.009616764262318611,-0.03902556374669075
1685548198050775600,10.693775634765625,-0.09665632992982864,0.03338814899325371,-0.05562364310026169
1685548198070777300,10.71377734375,-0.0821002870798111,0.013997540809214115,-0.03874630853533745
1685548198090777300,10.73377734375,-0.04995132237672806,-0.01377064734697342,0.00376991112716496
1685548198110775600,10.753775634765624,-0.01785471849143505,0.016231561079621315,0.061278510838747025
1685548198130777300,10.77377734375,0.006248278543353081,-0.01021017599850893,0.05900958180427551
1685548198150777300,10.79377734375,0.030054569244384766,-0.003036872949451208,0.063355453312397
1685548198170775600,10.813775634765625,0.03216641768813133,0.020891591906547546,0.08576548099517822
1685548198190775600,10.833775634765624,0.019861847162246704,0.01567305624485016,0.09009389579296112
1685548198210775600,10.853775634765626,-0.022357666864991188,0.016057029366493225,0.06326818466186523
1685548198230775600,10.873775634765625,-0.04827580600976944,-0.012496557086706161,0.012618730776011944
1685548198250775600,10.893775634765625,-0.04328416660428047,-0.010419615544378757,-0.05077162757515907
1685548198270775600,10.913775634765624,-0.032358404248952866,0.008587019518017769,-0.08038986474275589
1685548198290775600,10.933775634765626,-0.051539573818445206,0.009128072299063206,-0.06328564137220383
1685548198310775600,10.953775634765625,-0.07815584540367126,0.04162610322237015,0.006579891312867403
1685548198330775600,10.973775634765625,-0.07986626774072647,0.04120722413063049,0.06115633621811867
1685548198350775600,10.993775634765624,-0.066828653216362,0.03747221827507019,0.07023204863071442
1685548198370775600,11.013775634765626,-0.0521329827606678,0.025499260053038597,0.05855579674243927
1685548198390775600,11.033775634765625,-0.010384708642959595,0.006300638429820538,0.030578168109059334
1685548198410775600,11.053775634765625,0.05394812673330307,-0.0010471974965184927,-0.004712388850748539
1685548198430775600,11.073775634765624,0.11747810989618301,0.024609142914414406,-0.042184606194496155
1685548198450777300,11.09377734375,0.43333035707473755,0.040596358478069305,-0.017034413293004036
1685548198470775600,11.113775634765625,0.3362027704715729,0.044802602380514145,0.06042329967021942
1685548198490775600,11.133775634765625,0.05797983705997467,-0.06518805027008057,0.005951572675257921
1685548198510775600,11.153775634765625,0.00502654816955328,-0.16917476058006287,0.18050195276737213
1685548198530775600,11.173775634765626,-0.09920451790094376,-0.07757988572120667,0.26455700397491455
1685548198550775600,11.193775634765625,-0.0886976346373558,-0.017331119626760483,0.23226842284202576
1685548198570775600,11.213775634765625,-0.05515240505337715,0.1037074625492096,0.13578662276268005
1685548198590775600,11.233775634765625,-0.01661553420126438,0.05639158934354782,0.013997540809214115
1685548198610775600,11.253775634765624,-0.03804817795753479,-0.02364921197295189,-0.011885692365467548
1685548198630775600,11.273775634765625,-0.09457939118146896,-0.043423790484666824,-0.05201081186532974
1685548198650775600,11.293775634765625,-0.04982915148139,-0.05696754530072212,-0.06042329967021942
1685548198670775600,11.313775634765625,-0.00724311638623476,-0.05785766616463661,-0.12316788733005524
1685548198690777300,11.33377734375,-0.007592182140797377,-0.01895427517592907,-0.08414231985807419
1685548198710775600,11.353775634765626,-0.027122415602207184,0.1258905977010727,0.10559242218732834
1685548198730777300,11.37377734375,-0.03150319308042526,0.15680037438869476,0.2414139360189438
1685548198750777300,11.39377734375,-0.016423547640442848,0.14360569417476654,0.20296433568000793
1685548198770775600,11.413775634765624,-0.008534659631550312,0.05372123420238495,0.0870046615600586
1685548198790775600,11.433775634765626,-0.07782422751188278,-0.03415609151124954,-0.006265731994062662
1685548198810775600,11.453775634765625,-0.21329668164253235,-0.0642455667257309,-0.03666936606168747
1685548198830775600,11.473775634765625,-0.30347785353660583,-0.07045894116163254,-0.037768926471471786
1685548198850775600,11.493775634765624,-0.305345356464386,-0.04150392860174179,-0.021903881803154945
1685548198870786600,11.51378662109375,-0.23698081076145172,-0.010245082899928093,-0.0038920841179788113
1685548198890775600,11.533775634765625,-0.142314150929451,-0.020751964300870895,-0.030543262138962746
1685548198910775600,11.553775634765625,-0.030892327427864075,-0.015341443940997124,-0.05656611919403076
1685548198930775600,11.573775634765624,0.05916666239500046,0.010279988870024681,-0.03593632951378822
1685548198950777300,11.59377734375,0.06928957253694534,-0.008604473434388638,0.00823795422911644
1685548198970777300,11.61377734375,0.04742059484124184,-0.033684853464365005,0.04499458894133568
1685548198990777300,11.63377734375,0.039043016731739044,-0.039968039840459824,0.04824090003967285
1685548199010775600,11.653775634765625,0.03942698612809181,-0.008517206646502018,0.06368706375360489
1685548199030775600,11.673775634765626,0.023998277261853218,0.00029670598451048136,0.09278170019388199
1685548199050775600,11.693775634765625,0.008918632753193378,-0.022165682166814804,0.08473573625087738
1685548199070775600,11.713775634765625,0.02223549410700798,-0.04668755829334259,0.008639379404485226
1685548199090775600,11.733775634765625,0.048747044056653976,-0.06517059355974197,-0.08969247341156006
1685548199110775600,11.753775634765624,0.048694685101509094,-0.07963937520980835,-0.14467033743858337
1685548199130775600,11.773775634765625,0.021851522848010063,-0.06949900835752487,-0.12606513500213623
1685548199150775600,11.793775634765625,-0.0408930629491806,-0.038606684654951096,-0.049183379858732224
1685548199170775600,11.813775634765625,-0.11796680092811584,0.010594148188829422,0.08714429289102554
1685548199190775600,11.833775634765624,-0.13692107796669006,0.048520151525735855,0.1889144331216812
1685548199210775600,11.853775634765626,-0.09313076734542847,0.03998549282550812,0.1621236354112625
1685548199230777300,11.87377734375,-0.020263273268938065,0.008429939858615398,0.09801769256591797
1685548199250775600,11.893775634765625,0.01825614459812641,-0.026651177555322647,0.02241002768278122
1685548199270775600,11.913775634765624,0.040369465947151184,-0.07068583369255066,-0.004450589418411255
1685548199290775600,11.933775634765626,0.051225412636995316,-0.0754505842924118,0.012217304669320583
1685548199310775600,11.953775634765625,0.021467549726366997,-0.03729768469929695,0.04721115529537201
1685548199330775600,11.973775634765625,-0.016179202124476433,-0.014538592658936977,0.0953298807144165
1685548199350775600,11.993775634765624,-0.013473941944539547,-0.012985249981284142,0.10765190422534943
1685548199370775600,12.013775634765626,0.012164944782853127,-0.013281955383718014,0.06529276818037033
1685548199390775600,12.033775634765625,0.03300417587161064,-0.028379052877426147,0.0006981316837482154
1685548199410775600,12.053775634765625,0.03176499158143997,-0.024678954854607582,-0.017994344234466553
1685548199430775600,12.073775634765624,0.020402899011969566,-0.013596114702522755,0.015219271183013916
1685548199450775600,12.093775634765626,-0.003525565145537257,0.018535396084189415,0.07227408140897751
1685548199470775600,12.113775634765625,-0.012845623306930065,0.037803832441568375,0.11566296964883804
1685548199490777300,12.13377734375,0.009529497474431992,0.001658062799833715,0.08304276317358017
1685548199510775600,12.153775634765625,0.040421824902296066,-0.02555162087082863,0.00029670598451048136
1685548199530775600,12.173775634765626,0.05614724010229111,-0.02609267272055149,-0.07710864394903183
1685548199550775600,12.193775634765625,0.0670904591679573,-0.03286454826593399,-0.11093312501907349
1685548199570775600,12.213775634765625,0.05541420355439186,-0.028937559574842453,-0.1054353415966034
1685548199590775600,12.233775634765625,0.018273597583174706,-0.011013027280569077,-0.06752678751945496
1685548199610775600,12.253775634765624,-0.027838001027703285,0.0013264502631500363,0.006056292448192835
1685548199630775600,12.273775634765625,-0.05935864895582199,0.03497639670968056,0.058800142258405685
1685548199650775600,12.293775634765625,-0.04588470607995987,0.04700171574950218,0.07702138274908066
1685548199670775600,12.313775634765625,-0.013648474588990211,0.036651913076639175,0.04871213808655739
1685548199690775600,12.333775634765624,0.0035953782498836517,0.024120450019836426,0.0013089969288557768
1685548199710775600,12.353775634765626,0.02024581842124462,-0.007749261800199747,-0.05808455869555473
1685548199730775600,12.373775634765625,0.018971728160977364,-0.03363249450922012,-0.1382649838924408
1685548199750775600,12.393775634765625,0.01111774705350399,-0.024818582460284233,-0.14653784036636353
1685548199770775600,12.413775634765624,-0.012618730776011944,-0.0010646508308127522,-0.07033676654100418
1685548199790775600,12.433775634765626,-0.04106759652495384,0.04544837400317192,0.02050761878490448
1685548199810775600,12.453775634765625,-0.053965579718351364,0.043423790484666824,0.07548549026250839
1685548199830775600,12.473775634765625,-0.04682718217372894,0.04885176569223404,0.09519025683403015
1685548199850775600,12.493775634765624,-0.014137166552245617,0.0397411473095417,0.07503170520067215
1685548199870775600,12.513775634765626,0.012967796064913273,0.025185100734233856,-0.0007504915702156723
1685548199890775600,12.533775634765625,0.03363249450922012,-0.014521139673888683,-0.09002408385276794
1685548199910775600,12.553775634765625,0.02888519875705242,-0.040858156979084015,-0.1460491567850113
1685548199930775600,12.573775634765624,0.008377579972147942,-0.03122393973171711,-0.1410924196243286
1685548199950775600,12.593775634765626,-0.009494591504335403,-0.003717551240697503,-0.09199630469083786
1685548199970775600,12.613775634765625,-0.040020398795604706,0.037000980228185654,-0.01061160210520029
1685548199990775600,12.633775634765625,-0.054332099854946136,0.05075417459011078,0.048572514206171036
1685548200010777300,12.65377734375,-0.029077185317873955,0.05836381018161774,0.07037167251110077
1685548200030777300,12.67377734375,0.00938987173140049,0.058573249727487564,0.04180063679814339
1685548200050775600,12.693775634765625,0.05314527451992035,0.03516838327050209,-0.034033920615911484
1685548200070775600,12.713775634765625,0.07993607968091965,0.007504915818572044,-0.10402162373065948
1685548200090775600,12.733775634765625,0.07342600077390671,0.015830136835575104,-0.11301007121801376
1685548200110775600,12.753775634765624,0.06953391432762146,0.0032114058267325163,-0.08541641384363174
1685548200130775600,12.773775634765625,0.0780511274933815,-0.011728612706065178,-0.0895877480506897
1685548200150775600,12.793775634765625,0.08824384957551956,-0.009808750823140144,-0.13400638103485107
1685548200170775600,12.813775634765625,0.06923720985651016,-0.02382374368607998,-0.1834515631198883
1685548200190775600,12.833775634765624,0.039043016731739044,-0.015533430501818657,-0.16826719045639038
1685548200210775600,12.853775634765626,0.0006108652451075613,0.020699605345726013,-0.08140215277671814
1685548200230775600,12.873775634765625,-0.0501258559525013,0.06311110407114029,0.020263273268938065
1685548200250775600,12.893775634765625,-0.06141813471913338,0.07524114102125168,0.1005309671163559
1685548200270775600,12.913775634765624,-0.0228987205773592,0.07452555745840073,0.10278243571519852
1685548200290775600,12.933775634765626,0.00938987173140049,0.07250097393989563,0.0492531917989254
1685548200310775600,12.953775634765625,0.03291691094636917,0.032096605747938156,-0.01953023485839367
1685548200330775600,12.973775634765625,0.04951499029994011,0.003752457909286022,-0.07562511414289474
1685548200350775600,12.993775634765624,0.05017821490764618,-0.004258603323251009,-0.106569804251194
1685548200370775600,13.013775634765626,0.019861847162246704,0.010471975430846214,-0.07939502596855164
1685548200390775600,13.033775634765625,-0.01740093342959881,0.03560471534729004,-0.010838494636118412
1685548200410777300,13.05377734375,-0.03406882658600807,0.057299159467220306,0.05398303270339966
1685548200430777300,13.07377734375,-0.02989749051630497,0.04801400750875473,0.07073819637298584
1685548200450775600,13.093775634765626,-0.014852751977741718,0.041521381586790085,0.06457718461751938
1685548200470775600,13.113775634765625,-0.0008901178953237832,0.006510077975690365,0.049096111208200455
1685548200490777300,13.13377734375,0.009005898609757423,-0.016196655109524727,0.04649557173252106
1685548200510775600,13.153775634765625,0.003351032268255949,0.003455751808360219,0.022514747455716133
1685548200530775600,13.173775634765626,0.006911503616720438,0.0021293016616255045,-0.07129669934511185
1685548200550775600,13.193775634765625,0.009669124148786068,-0.019303342327475548,-0.1658935397863388
1685548200570775600,13.213775634765625,0.0066147977486252785,-0.008534659631550312,-0.1469392627477646
1685548200590775600,13.233775634765625,-0.03834488242864609,0.04124213010072708,-0.03810053691267967
1685548200610777300,13.25377734375,-0.10100220143795013,0.07185520231723785,0.052726395428180695
1685548200630775600,13.273775634765625,-0.10862929373979568,0.06352998316287994,0.08808676898479462
1685548200650775600,13.293775634765625,-0.06187192350625992,0.05738642439246178,0.056461401283741
1685548200670775600,13.313775634765625,-0.008796459063887596,0.035901423543691635,-0.014102260582149029
1685548200690775600,13.333775634765624,0.0279427208006382,-0.019425515085458755,-0.08515461534261703
1685548200710775600,13.353775634765626,0.07895869761705399,-0.03497639670968056,-0.11311478912830353
1685548200730775600,13.373775634765625,0.10636036098003387,-0.012932890094816685,-0.11875220388174057
1685548200750775600,13.393775634765625,0.09998991340398788,0.006544984877109528,-0.11410962790250778
1685548200770775600,13.413775634765624,0.06089453771710396,0.010524335317313671,-0.09887290000915527
1685548200790775600,13.433775634765626,0.04478514939546585,0.0039618974551558495,-0.05489060655236244
1685548200810775600,13.453775634765625,0.06501351296901703,0.0017104226863011718,0.0012740903766825795
1685548200830775600,13.473775634765625,0.05970771238207817,0.012653636746108532,0.025900686159729958
1685548200850775600,13.493775634765624,0.042586032301187515,0.019425515085458755,0.06443755328655243
1685548200870775600,13.513775634765626,0.05778785049915314,0.00678933085873723,0.13056808710098267
1685548200890777300,13.53377734375,0.0886976346373558,0.0023911010939627886,0.12885765731334686
1685548200910775600,13.553775634765625,0.12938125431537628,0.01096066739410162,0.10498155653476715
1685548200930775600,13.573775634765624,0.14826571941375732,-0.00012217304902151227,0.06492624431848526
1685548200950775600,13.593775634765626,0.1460316926240921,-0.022916173562407494,-0.004328416660428047
1685548200970775600,13.613775634765625,0.12985248863697052,-0.03291691094636917,-0.05230751633644104
1685548200990777300,13.63377734375,0.09485864639282227,-0.011833332479000092,-0.043999750167131424
1685548201010775600,13.653775634765625,0.04389503225684166,-0.005113814491778612,0.0020943949930369854
1685548201030775600,13.673775634765626,-0.0005235987482592463,0.001029744278639555,0.07897614687681198
1685548201050775600,13.693775634765625,-0.024504423141479492,0.02108357660472393,0.14210470020771027
1685548201070775600,13.713775634765625,-0.01211258489638567,0.006946410518139601,0.14594443142414093
1685548201090775600,13.733775634765625,0.023684117943048477,0.000052359879191499203,0.11739084869623184
1685548201110775600,13.753775634765624,0.0486772321164608,-0.013404129073023796,0.06173229590058327
1685548201130775600,13.773775634765625,0.053215090185403824,-0.03619812801480293,0.014678219333291054
1685548201150775600,13.793775634765625,0.0524296909570694,-0.04197516664862633,-0.003909537568688393
1685548201170775600,13.813775634765625,0.04841543361544609,-0.030944688245654106,-0.025220006704330444
1685548201190775600,13.833775634765624,0.04565781354904175,-0.028937559574842453,-0.04487241432070732
1685548201210775600,13.853775634765626,0.0309621412307024,-0.02822197414934635,-0.04120722413063049
1685548201230775600,13.873775634765625,-0.010698867961764336,-0.01961750164628029,-0.019966566935181618
1685548201250775600,13.893775634765625,-0.04358087107539177,-0.006300638429820538,-0.010332348756492138
1685548201270775600,13.913775634765624,-0.06082472577691078,0.021903881803154945,-0.005270894151180983
1685548201290777300,13.93377734375,-0.07140141725540161,0.014276793226599693,-0.02940879762172699
1685548201310775600,13.953775634765625,-0.06997025012969971,0.0024260077625513077,-0.05284857004880905
1685548201330775600,13.973775634765625,-0.07380997389554977,0.01616174913942814,-0.06524040549993515
1685548201350775600,13.993775634765624,-0.07956956326961517,0.02209586836397648,-0.049811698496341705
1685548201370775600,14.013775634765626,-0.07826056331396103,0.015690509229898453,-0.03881612420082092
1685548201390775600,14.033775634765625,-0.0604931116104126,0.016702800989151,-0.04899139329791069
1685548201410775600,14.053775634765625,-0.035849060863256454,0.020926497876644135,-0.054332099854946136
1685548201430777300,14.07377734375,-0.03640756756067276,0.02715732343494892,-0.034522611647844315
1685548201450775600,14.093775634765626,-0.05141739919781685,0.019163714721798897,-0.00013962633966002613
1685548201470775600,14.113775634765625,-0.04804891347885132,0.01624901592731476,-0.0020769417751580477
1685548201490775600,14.133775634765625,-0.039531707763671875,0.024609142914414406,-0.032882001250982285
1685548201510775600,14.153775634765625,-0.03230604529380798,0.0240506362169981,-0.048083819448947906
1685548201530777300,14.17377734375,-0.029792770743370056,0.014870204962790012,-0.0734434574842453
1685548201550775600,14.193775634765625,-0.014276793226599693,-0.003228859044611454,-0.10608111321926117
1685548201570775600,14.213775634765625,0.010873401537537575,-0.003054326167330146,-0.09119345247745514
1685548201590775600,14.233775634765625,0.006195918656885624,0.020298179239034653,-0.04473278671503067
1685548201610775600,14.253775634765624,0.005794493015855551,-0.005515240598469973,-0.03136356547474861
1685548201630775600,14.273775634765625,0.016510814428329468,-0.022654373198747635,-0.07524114102125168
1685548201650775600,14.293775634765625,0.010733774863183498,0.013439035043120384,-0.06372196972370148
1685548201670775600,14.313775634765625,-0.0024260077625513077,0.026947883889079094,0.019826939329504967
1685548201690775600,14.333775634765624,-0.010873401537537575,0.021327923983335495,0.05227261036634445
1685548201710777300,14.35377734375,0.00472984230145812,0.014189526438713074,0.009372417815029621
1685548201730775600,14.373775634765625,0.018064158037304878,0.0007853981805965304,-0.057194437831640244
1685548201750775600,14.393775634765625,0.020717058330774307,-0.011397000402212143,-0.09972811490297318
1685548201770775600,14.413775634765624,0.017662731930613518,-0.02275909297168255,-0.07853981852531433
1685548201790775600,14.433775634765626,0.004153883550316095,0.017034413293004036,-0.04862487316131592
1685548201810775600,14.453775634765625,0.004886921960860491,0.08243189752101898,-0.00609119888395071
1685548201830775600,14.473775634765625,-0.02028072625398636,0.05553637817502022,0.04530874639749527
1685548201850777300,14.49377734375,-0.026633724570274353,0.031084313988685608,0.06555456668138504
1685548201870775600,14.513775634765626,-0.004660028964281082,-0.008534659631550312,-0.00923279207199812
1685548201890775600,14.533775634765625,0.032794736325740814,-0.00019198621157556772,-0.03995058685541153
1685548201910775600,14.553775634765625,0.039095375686883926,0.013648474588990211,-0.01377064734697342
1685548201930775600,14.573775634765624,0.021031217649579048,-0.007941247895359993,0.01860520988702774
1685548201950775600,14.593775634765626,0.014590952545404434,0.0020769417751580477,0.05244714394211769
1685548201970775600,14.613775634765625,0.018709929659962654,0.021153390407562256,0.060266219079494476
1685548201990777300,14.63377734375,0.022357666864991188,0.0015707963611930609,0.023544492200016975
1685548202010775600,14.653775634765625,0.013089969754219055,-0.013369222171604633,-0.01993165910243988
1685548202030775600,14.673775634765626,0.02626720443367958,-0.023439772427082062,-0.049008846282958984
1685548202050775600,14.693775634765625,0.02949606440961361,-0.02967059798538685,-0.08433430641889572
1685548202070775600,14.713775634765625,0.019303342327475548,-0.022567106410861015,-0.07169812172651291
1685548202090775600,14.733775634765625,-0.0003316125657875091,-0.0061610122211277485,-0.003577925032004714
1685548202110775600,14.753775634765624,-0.020978856831789017,-0.017418386414647102,0.02897246554493904
1685548202130775600,14.773775634765625,-0.009250245057046413,-0.005951572675257921,0.02869321219623089
1685548202150775600,14.793775634765625,0.01754055917263031,-0.004398229531943798,0.015760323032736778
1685548202170775600,14.813775634765625,0.021502455696463585,-0.02963569015264511,0.0024085543118417263
1685548202190775600,14.833775634765624,-0.005375613924115896,-0.03937462717294693,0.00062831852119416
1685548202210777300,14.85377734375,-0.011100294068455696,-0.03415609151124954,-0.006195918656885624
1685548202230775600,14.873775634765625,-0.016755159944295883,-0.03717551380395889,-0.04326671361923218
1685548202250777300,14.89377734375,-0.01647590845823288,-0.035325463861227036,-0.06140068173408508
1685548202270775600,14.913775634765624,-0.010471975430846214,-0.04136430472135544,-0.07073819637298584
1685548202290775600,14.933775634765626,-0.010279988870024681,-0.050876349210739136,-0.08518952131271362
1685548202310775600,14.953775634765625,-0.007888888008892536,-0.057473693042993546,-0.0751713290810585
1685548202330775600,14.973775634765625,-0.013072515837848186,-0.04415683075785637,-0.0184306763112545
1685548202350777300,14.99377734375,-0.01780235767364502,-0.02595304511487484,0.033772122114896774
1685548202370775600,15.013775634765626,-0.0073303827084600925,-0.04372049868106842,0.03174753859639168
1685548202390775600,15.033775634765625,-0.013526301831007004,-0.03330088034272194,0.00041887903353199363
1685548202410775600,15.053775634765625,-0.03851941600441933,-0.02808234840631485,-0.02733185514807701
1685548202430775600,15.073775634765624,-0.050911255180835724,-0.043703045696020126,-0.011536626145243645
1685548202450775600,15.093775634765626,-0.04871213808655739,-0.029565878212451935,0.023684117943048477
1685548202470775600,15.113775634765625,-0.041573744267225266,-0.015201817266643047,0.023317597806453705
1685548202490775600,15.133775634765625,-0.04260348528623581,-0.01616174913942814,-0.0060388389974832535
1685548202510775600,15.153775634765625,-0.05195845291018486,-0.02200860157608986,-0.053529247641563416
1685548202530775600,15.173775634765626,-0.06400122493505478,-0.021327923983335495,-0.05227261036634445
1685548202550775600,15.193775634765625,-0.08578293025493622,0.01441641990095377,0.004625122528523207
1685548202570775600,15.213775634765625,-0.09295623749494553,0.027122415602207184,0.05705481395125389
1685548202590775600,15.233775634765625,-0.06921976059675217,0.020542524755001068,0.07984881103038788
1685548202610775600,15.253775634765624,-0.031956978142261505,0.02577851340174675,0.09758135676383972
1685548202630775600,15.273775634765625,-0.016999507322907448,0.021816615015268326,0.0843866690993309
1685548202650777300,15.29377734375,-0.0005759586347267032,0.027454029768705368,0.057508599013090134
1685548202670775600,15.313775634765625,-0.0003665191470645368,0.007871435023844242,0.018133969977498055
1685548202690775600,15.333775634765624,0.006946410518139601,-0.030682887881994247,-0.024591689929366112
1685548202710775600,15.353775634765626,0.0008552113431505859,-0.014835298992693424,-0.04567526653409004
1685548202730775600,15.373775634765625,-0.008691739290952682,-0.005340707488358021,-0.04574507847428322
1685548202750775600,15.393775634765625,-0.02316051907837391,-0.0067544239573180676,-0.038152895867824554
1685548202770775600,15.413775634765624,-0.03176499158143997,0.003351032268255949,0
1685548202790775600,15.433775634765626,-0.03537782281637192,0.004886921960860491,0.03258529677987099
1685548202810777300,15.45377734375,-0.03183480724692345,0.01984439417719841,0.06066764518618584
1685548202830777300,15.47377734375,-0.03052580915391445,0.03073524869978428,0.09079203009605408
1685548202850775600,15.493775634765624,-0.019250981509685516,0.0302465558052063,0.09416051208972931
1685548202870775600,15.513775634765626,0.0017627825727686286,0.0037000980228185654,0.03260274976491928
1685548202890775600,15.533775634765625,0.014556045643985271,-0.02958333119750023,-0.023684117943048477
1685548202910775600,15.553775634765625,0.018168877810239792,-0.01846558414399624,-0.022567106410861015
1685548202930775600,15.573775634765624,0.008569566532969475,-0.004834562074393034,-0.008133234456181526
1685548202950775600,15.593775634765626,-0.01891936920583248,-0.002949606394395232,0.0033335788175463676
1685548202970775600,15.613775634765625,-0.03560471534729004,-0.000017453292457503267,0.031782444566488266
1685548202990777300,15.63377734375,-0.04197516664862633,0.012845623306930065,0.05424483120441437
1685548203010775600,15.653775634765625,-0.03851941600441933,0.03956661373376846,0.10733775049448013
1685548203030775600,15.673775634765626,-0.01661553420126438,0.05738642439246178,0.14540338516235352
1685548203050775600,15.693775634765625,-0.000052359879191499203,0.019634954631328583,0.0740368664264679
1685548203070775600,15.713775634765625,0.020961403846740723,-0.0028972465079277754,0.012234757654368877
1685548203090777300,15.73377734375,0.04173082113265991,0.00724311638623476,0.029688050970435143
1685548203110775600,15.753775634765624,0.04417428374290466,-0.002827433403581381,0.0351334773004055
1685548203130775600,15.773775634765625,0.0651182308793068,-0.03651228919625282,0.0077667152509093285
1685548203150775600,15.793775634765625,0.06843435764312744,-0.029042279347777367,-0.03113667294383049
1685548203170775600,15.813775634765625,0.023369958624243736,-0.0015882495790719986,-0.03649483621120453
1685548203190775600,15.833775634765624,0.00027925267932005227,-0.010000736452639103,-0.00003490658491500653
1685548203210777300,15.85377734375,0.010402162559330463,-0.014224433340132236,0.02214822731912136
1685548203230777300,15.87377734375,0.027890361845493317,-0.0017278759041801095,0.015498523600399494
1685548203250777300,15.89377734375,0.03033382259309292,-0.013194689527153969,-0.02750638872385025
1685548203270775600,15.913775634765624,0.037402406334877014,-0.036582101136446,-0.05057964101433754
1685548203290775600,15.933775634765626,0.050597093999385834,-0.04475024342536926,-0.06257005035877228
1685548203310775600,15.953775634765625,0.05146975815296173,-0.029443703591823578,-0.03241076320409775
1685548203330775600,15.973775634765625,0.05124286562204361,0.0011693706037476659,0.020874137058854103
1685548203350775600,15.993775634765624,0.04886921867728233,-0.021624628454446793,0.002775073517113924
1685548203370775600,16.013775634765626,0.048031460493803024,-0.033719759434461594,-0.051487211138010025
1685548203390777300,16.03377734375,0.04511675983667374,-0.032707471400499344,-0.08014551550149918
1685548203410775600,16.053775634765625,0.04345869645476341,-0.04274311289191246,-0.0653974860906601
1685548203430775600,16.073775634765624,0.033719759434461594,-0.019285887479782104,-0.03871140256524086
1685548203450775600,16.093775634765624,0.028780478984117508,-0.007278022821992636,-0.03202679008245468
1685548203470775600,16.113775634765624,0.026459190994501114,-0.013159782625734806,-0.05071926862001419
1685548203490777300,16.13377734375,0.0269304309040308,-0.010541788302361965,-0.04567526653409004
1685548203510777300,16.15377734375,0.021851522848010063,-0.0005759586347267032,-0.02750638872385025
1685548203530775600,16.173775634765626,0.02520255371928215,-0.0013089969288557768,-0.01302015595138073
1685548203550775600,16.193775634765625,0.026808258146047592,0.009093165397644043,-0.010262535884976387
1685548203570777300,16.21377734375,0.023806290701031685,0.00996582955121994,-0.021589722484350204
1685548203590775600,16.233775634765625,0.027000242844223976,-0.0019896754529327154,-0.03307398781180382
1685548203610775600,16.253775634765624,0.02445206232368946,-0.00019198621157556772,-0.01993165910243988
1685548203630775600,16.273775634765624,0.015777776017785072,0.005654866807162762,-0.00898844562470913
1685548203650777300,16.29377734375,0.014364060014486313,-0.004310963209718466,-0.025394540280103683
1685548203670775600,16.313775634765626,0.022165682166814804,-0.0012391837080940604,-0.028763025999069214
1685548203690775600,16.333775634765626,0.01202531810849905,0.013892821036279202,0.0011519172694534063
1685548203710775600,16.353775634765626,-0.017697637900710106,0.02555162087082863,0.039933133870363235
1685548203730775600,16.373775634765625,-0.029792770743370056,0.0228987205773592,0.04872959107160568
1685548203750775600,16.393775634765625,-0.02015855349600315,0.007278022821992636,0.014154620468616486
1685548203770777300,16.41377734375,-0.006702064536511898,0.0038746309000998735,-0.002809980185702443
1685548203790777300,16.43377734375,-0.00548033369705081,-0.002809980185702443,-0.003857177682220936
1685548203810777300,16.45377734375,-0.004747295752167702,0.004153883550316095,-0.008360126987099648
1685548203830775600,16.473775634765627,-0.002478367416188121,0.0031241392716765404,-0.033772122114896774
1685548203850777300,16.49377734375,0.0023911010939627886,-0.016423547640442848,-0.04427900165319443
1685548203870775600,16.513775634765626,-0.007888888008892536,-0.0011344640515744686,-0.01846558414399624
1685548203890777300,16.53377734375,-0.01895427517592907,-0.00040142572834156454,0.002775073517113924
1685548203910775600,16.553775634765625,-0.022706734016537666,-0.01687733456492424,0.00457276264205575
1685548203930777300,16.57377734375,-0.038467057049274445,0.00094247778179124,0.022218041121959686
1685548203950777300,16.59377734375,-0.05239478498697281,0.02139773592352867,0.0529881976544857
1685548203970775600,16.613775634765624,-0.04092797264456749,0.01811651699244976,0.07354817539453506
1685548203990777300,16.63377734375,-0.02604031190276146,0.003543018363416195,0.06717772036790848
1685548204010775600,16.653775634765626,-0.005375613924115896,-0.009494591504335403,0.04007275775074959
1685548204030794500,16.67379443359375,0.013089969754219055,-0.026511551812291145,-0.006248278543353081
1685548204050777300,16.69377734375,0.021467549726366997,-0.02373647689819336,-0.02488839440047741
1685548204070775600,16.713775634765625,0.0013264502631500363,-0.015655603259801865,-0.00609119888395071
1685548204090777300,16.73377734375,-0.022602014243602753,-0.002687806962057948,0.029112091287970543
1685548204110775600,16.753775634765624,-0.024644048884510994,0.004398229531943798,0.04057890549302101
1685548204130775600,16.773775634765624,-0.023230332881212234,0.004188789986073971,0.03853686898946762
1685548204150775600,16.793775634765623,-0.040631264448165894,0.0008377580670639873,0.056758105754852295
1685548204170775600,16.813775634765626,-0.04979424178600311,0.01120501384139061,0.08377580344676971
1685548204190775600,16.833775634765626,-0.03637266159057617,0.008761553093791008,0.05967280641198158
1685548204210775600,16.853775634765626,-0.014887658879160881,-0.01647590845823288,0.005288347601890564
1685548204230775600,16.873775634765625,-0.00143117003608495,-0.026284659281373024,-0.028728120028972626
1685548204250777300,16.89377734375,0.006684611085802317,-0.03836233541369438,-0.05351179465651512
1685548204270775600,16.913775634765624,0.01912880875170231,-0.02900737151503563,-0.038693949580192566
1685548204290775600,16.933775634765624,0.011885692365467548,-0.01335176918655634,-0.019163714721798897
1685548204310775600,16.953775634765623,-0.0009075712296180427,-0.02923426404595375,-0.02595304511487484
1685548204330775600,16.973775634765627,-0.023841196671128273,-0.02555162087082863,-0.020629791542887688
1685548204350775600,16.993775634765626,-0.051888637244701385,0.004520402755588293,0.019949113950133324
1685548204370775600,17.013775634765626,-0.07323401421308517,0.03928736224770546,0.08655087649822235
1685548204390775600,17.033775634765625,-0.06058037653565407,0.054017938673496246,0.11768755316734314
1685548204410775600,17.053775634765625,-0.01762782596051693,0.010698867961764336,0.04845033958554268
1685548204430775600,17.073775634765624,0.022863812744617462,-0.023492131382226944,-0.05855579674243927
1685548204450775600,17.093775634765624,0.049270644783973694,-0.04459316283464432,-0.1270599663257599
1685548204470777300,17.11377734375,0.03738495334982872,-0.0385892279446125,-0.12128292769193649
1685548204490777300,17.13377734375,0.004049163777381182,-0.019146261736750603,-0.07579965144395828
1685548204510775600,17.153775634765626,-0.014678219333291054,0.0005061454721726477,-0.03951425477862358
1685548204530777300,17.17377734375,-0.03291691094636917,0.047368235886096954,0.0368788056075573
1685548204550775600,17.193775634765625,-0.03972369432449341,0.0651182308793068,0.12219049781560898
1685548204570775600,17.213775634765625,-0.010576695203781128,0.06051056459546089,0.150342658162117
1685548204590777300,17.23377734375,0.01563815027475357,0.030717793852090836,0.08435176312923431
1685548204610777300,17.25377734375,0.03839724510908127,0.014678219333291054,0.009634217247366905
1685548204630775600,17.273775634765624,0.056007616221904755,0.0055850534699857235,-0.05475097894668579
1685548204650775600,17.293775634765623,0.07592181861400604,-0.03764675185084343,-0.1264141947031021
1685548204670777300,17.31377734375,0.059899698942899704,-0.055431656539440155,-0.15767304599285126
1685548204690775600,17.333775634765626,0.00815068744122982,-0.01679006777703762,-0.09405579417943954
1685548204710775600,17.353775634765626,-0.045779984444379807,0.009040805511176586,0.01326450239866972
1685548204730793000,17.37379296875,-0.0651182308793068,0.02364921197295189,0.11213740706443787
1685548204750775600,17.393775634765625,-0.06391395628452301,0.046931903809309006,0.1451764851808548
1685548204770775600,17.413775634765624,-0.06757915019989014,0.033999014645814896,0.09951867163181305
1685548204790775600,17.433775634765624,-0.07415904104709625,0.005759586580097675,0.010908307507634163
1685548204810775600,17.453775634765623,-0.05726425349712372,-0.008028514683246613,-0.0512777715921402
1685548204830775600,17.473775634765627,-0.06115633621811867,-0.07396705448627472,-0.07578219473361969
1685548204850775600,17.493775634765626,-0.05797983705997467,-0.1091528907418251,-0.027262043207883835
1685548204870775600,17.513775634765626,-0.039269909262657166,-0.06958627700805664,-0.011344640515744686
1685548204890775600,17.533775634765625,-0.0665319487452507,-0.03810053691267967,-0.04253367334604263
1685548204910775600,17.553775634765625,-0.1131846010684967,-0.00548033369705081,-0.03228859230875969
1685548204930775600,17.573775634765624,-0.13486158847808838,-0.0011519172694534063,-0.0010471974965184927
1685548204950775600,17.593775634765624,-0.13665927946567535,0.007260569836944342,0.030613074079155922
1685548204970775600,17.613775634765624,-0.11346385627985,0.035150930285453796,0.05311036854982376
1685548204990775600,17.633775634765627,-0.08075638115406036,0.05323254317045212,0.06016149744391441
1685548205010775600,17.653775634765626,-0.03595378249883652,0.04078834503889084,0.035849060863256454
1685548205030775600,17.673775634765626,-0.005078908056020737,0.015830136835575104,-0.017435839399695396
1685548205050775600,17.693775634765625,0.019652407616376877,-0.003228859044611454,-0.062203533947467804
1685548205070775600,17.713775634765625,0.03719296678900719,-0.019111355766654015,-0.0711396187543869
1685548205090775600,17.733775634765625,0.0309621412307024,-0.014678219333291054,-0.06644468754529953
1685548205110775600,17.753775634765624,0.003717551240697503,0.026633724570274353,-0.042010076344013214
1685548205130775600,17.773775634765624,-0.027035150676965714,0.06857398897409439,-0.018325956538319588
1685548205150775600,17.793775634765623,-0.045151665806770325,0.06635741889476776,-0.0033335788175463676
1685548205170775600,17.813775634765626,-0.053843408823013306,0.04911356419324875,0.007853982038795948
1685548205190775600,17.833775634765626,-0.05976007506251335,0.04211479425430298,0.04084070399403572
1685548205210775600,17.853775634765626,-0.06059783324599266,0.02710496261715889,0.05775294452905655
1685548205230775600,17.873775634765625,-0.05829399824142456,0.008848818950355053,0.05544910952448845
1685548205250775600,17.893775634765625,-0.05152212083339691,0.008587019518017769,0.04197516664862633
1685548205270775600,17.913775634765624,-0.04942772537469864,0.030054569244384766,-0.0012217304902151227
1685548205290775600,17.933775634765624,-0.029042279347777367,0.017575465142726898,-0.06075491011142731
1685548205310775600,17.953775634765623,0.0006457717972807586,-0.006248278543353081,-0.0858352929353714
1685548205330775600,17.973775634765627,0.024434609338641167,-0.002600540639832616,-0.06906268000602722
1685548205350775600,17.993775634765626,0.049008846282958984,-0.01127482671290636,-0.04743804782629013
1685548205370775600,18.013775634765626,0.045779984444379807,-0.023858651518821716,-0.030979594215750694
1685548205390775600,18.033775634765625,0.04738568887114525,-0.02298598550260067,0.003944444004446268
1685548205410775600,18.053775634765625,0.04251622036099434,-0.03525565192103386,0.014364060014486313
1685548205430793000,18.07379296875,0.029356438666582108,-0.033283427357673645,-0.022881265729665756
1685548205450775600,18.093775634765624,0.0024434609804302454,-0.05085889250040054,-0.06352998316287994
1685548205470775600,18.113775634765624,-0.002478367416188121,-0.07913322746753693,-0.0443488173186779
1685548205490775600,18.133775634765627,-0.014451325871050358,-0.07052875310182571,-0.016772614791989326
1685548205510775600,18.153775634765626,-0.029932396486401558,-0.04960225895047188,-0.026982789859175682
1685548205530775600,18.173775634765626,-0.03349286690354347,-0.048293258994817734,-0.07644542306661606
1685548205550775600,18.193775634765625,-0.005323254037648439,-0.039392080157995224,-0.10999064892530441
1685548205570775600,18.213775634765625,-0.0077667152509093285,-0.059323739260435104,-0.07415904104709625
1685548205590775600,18.233775634765625,-0.03851941600441933,-0.0507018156349659,0.011763518676161766
1685548205610775600,18.253775634765624,-0.036302849650382996,-0.0449247732758522,0.04796164855360985
1685548205630775600,18.273775634765624,0.006126105785369873,-0.035639625042676926,0.04087560996413231
1685548205650775600,18.293775634765623,0.042271874845027924,-0.006684611085802317,0.05133013427257538
1685548205670775600,18.313775634765626,0.05323254317045212,0.002548180753365159,0.07220426946878433
1685548205690775600,18.333775634765626,0.073722705245018,-0.03113667294383049,0.056234508752822876
1685548205710775600,18.353775634765626,0.08737118542194366,-0.05028293654322624,-0.03473205119371414
1685548205730775600,18.373775634765625,0.10463248938322067,-0.06777113676071167,-0.12000884115695953
1685548205750775600,18.393775634765625,0.10780898481607437,-0.08260643482208252,-0.11793189495801926
1685548205770775600,18.413775634765624,0.08127998560667038,-0.04668755829334259,-0.0659734457731247
1685548205790775600,18.433775634765624,0.060562923550605774,0.02733185514807701,-0.01984439417719841
1685548205810775600,18.453775634765623,0.040037851780653,0.024347342550754547,0.046041786670684814
1685548205830775600,18.473775634765627,0.0005235987482592463,0.03497639670968056,0.10728538781404495
1685548205850835000,18.4938349609375,-0.0005759586347267032,0.019949113950133324,0.09745918214321136
1685548205870775600,18.513775634765626,0.017645278945565224,0.007435102481395006,0.0449247732758522
1685548205890775600,18.533775634765625,0.025883233174681664,0.027838001027703285,0.015446163713932037
1685548205910775600,18.553775634765625,0.01722639985382557,0.00296705961227417,-0.02324778586626053
1685548205930775600,18.573775634765624,-0.00019198621157556772,-0.04351105913519859,-0.11602948606014252
1685548205950775600,18.593775634765624,-0.00593411922454834,-0.04124213010072708,-0.17736035585403442
1685548205970775600,18.613775634765624,-0.000052359879191499203,-0.00376991112716496,-0.16109389066696167
1685548205990775600,18.633775634765627,-0.0051312679424881935,0.010070549324154854,-0.12150982022285461
1685548206010775600,18.653775634765626,-0.04818854108452797,0.0518362782895565,-0.02307325229048729
1685548206030775600,18.673775634765626,-0.06839945167303085,0.0869872123003006,0.08557349443435669
1685548206050775600,18.693775634765625,-0.041032690554857254,0.06269222497940063,0.0863937959074974
1685548206070775600,18.713775634765625,0.0031415927223861217,0.050876349210739136,0.003909537568688393
1685548206090775600,18.733775634765625,0.027314402163028717,0.06311110407114029,-0.05881759524345398
1685548206110775600,18.753775634765624,0.042498767375946045,0.005410520825535059,-0.11079350113868713
1685548206130793000,18.77379296875,0.021327923983335495,0.014294246211647987,-0.1094495952129364
1685548206150775600,18.793775634765623,0.02494075521826744,0.025010569021105766,-0.09513789415359497
1685548206170775600,18.813775634765626,0.01891936920583248,0.030490901321172714,-0.06426302343606949
1685548206190775600,18.833775634765626,-0.008953538723289967,0.04539601504802704,0.012234757654368877
1685548206210775600,18.853775634765626,-0.02321287989616394,0.07454301416873932,0.1157851442694664
1685548206230775600,18.873775634765625,-0.004241149872541428,0.06620033830404282,0.1572890728712082
1685548206250775600,18.893775634765625,0.0213104709982872,0.025359634310007095,0.10355038195848465
1685548206270775600,18.913775634765624,0.05359905958175659,-0.0031241392716765404,0.020839231088757515
1685548206290775600,18.933775634765624,0.07260569930076599,-0.03251548483967781,-0.047909289598464966
1685548206310775600,18.953775634765623,0.05651376023888588,-0.031381018459796906,-0.07752752304077148
1685548206330775600,18.973775634765627,-0.06206390634179115,0.02125811018049717,0.04314453899860382
1685548206350775600,18.993775634765626,-0.11768755316734314,-0.022340213879942894,0.04902629926800728
1685548206370775600,19.013775634765626,-0.040509093552827835,0.001117010717280209,-0.03871140256524086
1685548206390775600,19.033775634765625,0.03087487444281578,0.044052109122276306,-0.07122688740491867
1685548206410775600,19.053775634765625,0.04708898440003395,0.026319565251469612,0.021642083302140236
1685548206430775600,19.073775634765624,0.016231561079621315,0.002949606394395232,0.08600982278585434
1685548206450775600,19.093775634765624,0.00609119888395071,0.017907077446579933,0.10381218045949936
1685548206470775600,19.113775634765624,-0.012915436178445816,0.020559977740049362,0.08260643482208252
1685548206490775600,19.133775634765627,-0.022706734016537666,-0.004485496319830418,0.0016755161341279745
1685548206510775600,19.153775634765626,0.00945968460291624,-0.024678954854607582,-0.04389503225684166
1685548206530775600,19.173775634765626,0.023893557488918304,-0.04534365236759186,-0.06546729803085327
1685548206550775600,19.193775634765625,0.03234095126390457,-0.0431968979537487,-0.11440633237361908
1685548206570775600,19.213775634765625,0.06649704277515411,-0.05984733998775482,-0.11304497718811035
1685548206590775600,19.233775634765625,0.08510225266218185,-0.03185226023197174,-0.07728318125009537
1685548206610775600,19.253775634765624,0.11084586381912231,-0.009110618382692337,0.013735741376876831
1685548206630775600,19.273775634765624,0.03867649659514427,-0.007382742594927549,0.10524335503578186
1685548206650775600,19.293775634765623,0.011484266258776188,0.030770154669880867,0.1779886782169342
1685548206670775600,19.313775634765626,-0.0009599310578778386,-0.04536110535264015,0.0659385398030281
1685548206690775600,19.333775634765626,0.03530801087617874,0.013194689527153969,-0.06506587564945221
1685548206710775600,19.353775634765626,0.08311257511377335,0.09107127785682678,-0.1751263439655304
1685548206730775600,19.373775634765625,0.0904429629445076,0.03136356547474861,-0.22788764536380768
1685548206750775600,19.393775634765625,0.07335618883371353,-0.03637266159057617,-0.24958208203315735
1685548206770775600,19.413775634765624,0.02197369560599327,-0.05274384841322899,-0.2237861156463623
1685548206790775600,19.433775634765624,0.003036872949451208,-0.08735372871160507,-0.08431685715913773
1685548206810775600,19.453775634765623,-0.04979424178600311,-0.11014772951602936,0.035238198935985565
1685548206830793000,19.47379296875,-0.09950122237205505,-0.12388347089290619,0.12084659934043884
1685548206850775600,19.493775634765626,-0.3032509684562683,0.11945033073425293,0.3408104479312897
1685548206870775600,19.513775634765626,-0.33594098687171936,0.10377727448940277,0.4064348340034485
1685548206890775600,19.533775634765625,-0.2641206681728363,0.07271041721105576,0.31234413385391235
1685548206910775600,19.553775634765625,-0.20123645663261414,0.054017938673496246,0.1474628746509552
1685548206930775600,19.573775634765624,-0.05607742816209793,-0.006579891312867403,-0.028902651742100716
1685548206950775600,19.593775634765624,0.07998844236135483,-0.08361872285604477,-0.20430824160575867
1685548206970775600,19.613775634765624,0.1811477243900299,-0.1566607505083084,-0.22830651700496674
1685548206990775600,19.633775634765627,0.14676474034786224,-0.10732029378414154,-0.014695672318339348
1685548207010775600,19.653775634765626,0.057421330362558365,-0.06988298147916794,0.23863886296749115
1685548207030775600,19.673775634765626,-0.07283259183168411,-0.008028514683246613,0.3177197277545929
1685548207050775600,19.693775634765625,-0.1693492978811264,0.07543312758207321,0.289742112159729
1685548207070775600,19.713775634765625,-0.14582225680351257,-0.02537708729505539,0.24265313148498535
1685548207090775600,19.733775634765625,-0.06771877408027649,-0.023544492200016975,0.2149023860692978
1685548207110775600,19.753775634765624,-0.122714102268219,-0.015376350842416286,0.16079717874526978
1685548207130775600,19.773775634765624,-0.09328784793615341,0.002321287989616394,0.05424483120441437
1685548207150775600,19.793775634765623,0.22172662615776062,-0.04016002640128136,-0.024993114173412323
1685548207170775600,19.813775634765626,0.3318045437335968,0.17479471862316132,0.18650588393211365
1685548207190775600,19.833775634765626,0.2217789888381958,0.15779522061347961,0.1552819460630417
1685548207210775600,19.853775634765626,0.01218239776790142,0.14638076722621918,0.1293463557958603
1685548207230775600,19.873775634765625,-0.1374272257089615,0.19378390908241272,0.015830136835575104
1685548207250775600,19.893775634765625,-0.11182324588298798,0.12828169763088226,-0.10440559685230255
1685548207270775600,19.913775634765624,-0.029914943501353264,0.07239625602960587,-0.3009645640850067
1685548207290775600,19.933775634765624,0.1673247218132019,0.0717330351471901,-0.4020889401435852
1685548207310775600,19.953775634765623,0.2983640432357788,0.044628068804740906,-0.5164778232574463
1685548207330775600,19.973775634765627,0.3286454975605011,-0.019373154267668724,-0.5693961977958679
1685548207350775600,19.993775634765626,0.20985838770866394,-0.12454669177532196,-0.5041208863258362
1685548207370775600,20.013775634765626,0.0397411473095417,-0.11599458009004593,-0.3534815311431885
1685548207390775600,20.033775634765625,-0.06684610992670059,-0.08976228535175323,-0.0918741300702095
1685548207410799000,20.053799072265626,-0.11716394871473312,-0.1111949235200882,0.06014404445886612
1685548207430775600,20.073775634765624,-0.13262757658958435,-0.07360053062438965,0.07559020817279816
1685548207450775600,20.093775634765624,-0.11451105028390884,-0.05258677154779434,0.0025307273026555777
1685548207470775600,20.113775634765624,-0.09065239876508713,-0.06918485462665558,-0.1051386371254921
1685548207490775600,20.133775634765627,-0.10000736266374588,-0.07506661117076874,-0.15706217288970947
1685548207510775600,20.153775634765626,-0.05899212881922722,0.015620696358382702,-0.14475761353969574
1685548207530793000,20.17379296875,0.029862582683563232,0.1598721593618393,-0.10040879249572754
1685548207550775600,20.193775634765625,0.059637900441884995,0.175719752907753,0.033772122114896774
1685548207570775600,20.213775634765625,0.0131772356107831,0.10709340125322342,0.19319050014019012
1685548207590775600,20.233775634765625,-0.055518921464681625,0.00823795422911644,0.25480061769485474
1685548207610775600,20.253775634765624,-0.08234463632106781,-0.05094616115093231,0.24696408212184906
1685548207630775600,20.273775634765624,-0.08972737938165665,-0.06668902933597565,0.17615607380867004
1685548207650775600,20.293775634765623,-0.08155923336744308,-0.027035150676965714,0.03141592815518379
1685548207670775600,20.313775634765626,-0.03242821618914604,0.032393310219049454,-0.08632398396730423
1685548207690777300,20.33377734375,0.03394665569067001,0.05420992523431778,-0.19004890322685242
1685548207710777300,20.35377734375,0.03928736224770546,0.04138175770640373,-0.23239058256149292
1685548207730777300,20.37377734375,-0.048921577632427216,0.036302849650382996,-0.15549138188362122
1685548207750775600,20.393775634765625,-0.07761479169130325,0.020891591906547546,0.05654866620898247
1685548207770775600,20.413775634765624,-0.0642455667257309,-0.0076445420272648335,0.1638864129781723
1685548207790775600,20.433775634765624,-0.008831365965306759,-0.038379788398742676,0.2281145304441452
1685548207810775600,20.453775634765623,0.05318018049001694,-0.08665559440851212,0.10197959095239639
1685548207830775600,20.473775634765627,0.03291691094636917,-0.01722639985382557,-0.11744320392608643
1685548207850775600,20.493775634765626,0.004293509759008884,0.11271335929632187,-0.16166985034942627
1685548207870775600,20.513775634765626,-0.09054768085479736,0.008883725851774216,-0.022846359759569168
1685548207890777300,20.53377734375,-0.2330363541841507,-0.08134979754686356,0.04646066576242447
1685548207910775600,20.553775634765625,-0.29302331805229187,-0.02356194518506527,0.11789698898792267
1685548207930775600,20.573775634765624,-0.23753930628299713,0.05063199996948242,0.22547908127307892
1685548207950775600,20.593775634765624,-0.16194909811019897,0.03291691094636917,0.2663547098636627
1685548207970775600,20.613775634765624,-0.06332054734230042,0.012322024442255497,0.2036624699831009
1685548207990775600,20.633775634765627,0.040509093552827835,0.017924530431628227,0.061854466795921326
1685548208010775600,20.653775634765626,0.0751713290810585,0.014346606098115444,-0.07852236181497574
1685548208030775600,20.673775634765626,0.05307546257972717,-0.016057029366493225,-0.12997466325759888
1685548208050775600,20.693775634765625,-0.004921828396618366,-0.03431317210197449,-0.07876671105623245
1685548208070775600,20.713775634765625,-0.08328711241483688,-0.022532200440764427,0.01687733456492424
1685548208090775600,20.733775634765625,-0.1379508227109909,-0.011152653954923153,0.0990648865699768
1685548208110775600,20.753775634765624,-0.1339540183544159,-0.007278022821992636,0.13859659433364868
1685548208130775600,20.773775634765624,-0.08302531391382217,0.017680184915661812,0.10883872956037521
1685548208150775600,20.793775634765623,-0.05489060655236244,0.0469493567943573,0.1201135590672493
1685548208170775600,20.813775634765626,-0.014224433340132236,0.05721189081668854,0.07150614261627197
1685548208190775600,20.833775634765626,0.026563910767436028,0.037716563791036606,-0.008098327554762363
1685548208210775600,20.853775634765626,0.04000294581055641,0.006544984877109528,-0.14737559854984283
1685548208230793000,20.87379296875,0.058660514652729034,0.01638864167034626,-0.2310292273759842
1685548208250775600,20.893775634765625,0.04806636646389961,0.006230825558304787,-0.2036275565624237
1685548208270775600,20.913775634765624,0.021066123619675636,0.0031590459402650595,-0.10147344321012497
1685548208290775600,20.933775634765624,-0.012060225009918213,0.011536626145243645,0.033684853464365005
1685548208310775600,20.953775634765623,-0.024609142914414406,-0.006527531426399946,0.10941468924283981
1685548208330775600,20.973775634765627,-0.014800392091274261,-0.028274333104491234,0.05722934752702713
1685548208350775600,20.993775634765626,0.021415190771222115,-0.01532399095594883,-0.05614724010229111
1685548208370775600,21.013775634765626,0.05581562966108322,-0.015603243373334408,-0.133622407913208
1685548208390775600,21.033775634765625,0.04672246426343918,-0.027890361845493317,-0.10676179081201553
1685548208410775600,21.053775634765625,0.07656759768724442,-0.03508111834526062,-0.10400416702032089
1685548208430777300,21.07377734375,0.12157963216304779,-0.0007330382941290736,-0.13990558683872223
1685548208450775600,21.093775634765624,0.1339191198348999,0.00047123889089562,-0.1235518604516983
1685548208470775600,21.113775634765624,0.08885471522808075,-0.01722639985382557,-0.04597197100520134
1685548208490775600,21.133775634765627,0.014748032204806805,-0.029199358075857162,0.04769985005259514
1685548208510775600,21.153775634765626,-0.021799162030220032,-0.036163222044706345,0.11861257255077362
1685548208530775600,21.173775634765626,-0.01860520988702774,-0.011379546485841274,0.12349949777126312
1685548208550775600,21.193775634765625,0.006352998316287994,-0.022776545956730843,0.08630653470754623
1685548208570775600,21.213775634765625,0.05106833204627037,-0.03438298776745796,0.005270894151180983
1685548208590775600,21.233775634765625,0.08953539282083511,-0.024644048884510994,-0.049357909709215164
1685548208610775600,21.253775634765624,0.11562806367874146,-0.03230604529380798,-0.05085889250040054
1685548208630775600,21.273775634765624,0.11400490999221802,-0.04717624932527542,-0.028291787952184677
1685548208650775600,21.293775634765623,0.07223917543888092,-0.01855284906923771,-0.016004668548703194
1685548208670775600,21.313775634765626,0.03164282068610191,0.01127482671290636,0.009861109778285027
1685548208690777300,21.33377734375,-0.0077667152509093285,0.02024581842124462,0.07119198143482208
1685548208710775600,21.353775634765626,-0.03132865950465202,0.018814649432897568,0.14130185544490814
1685548208730777300,21.37377734375,-0.0247662216424942,0.022200588136911392,0.16606807708740234
1685548208750775600,21.393775634765625,0.015428710728883743,0.0803724154829979,0.1442689150571823
1685548208770775600,21.413775634765624,0.03495894372463226,0.06407103687524796,0.10751228034496307
1685548208790775600,21.433775634765624,0.04056145250797272,0.025150194764137268,0.04115486517548561
1685548208810775600,21.453775634765623,0.06352998316287994,0.023352505639195442,-0.05373868718743324
1685548208830775600,21.473775634765627,0.07628834247589111,0.012653636746108532,-0.10259045660495758
1685548208850775600,21.493775634765626,0.06946410238742828,0.006562437862157822,-0.06023131310939789
1685548208870775600,21.513775634765626,0.055344391614198685,-0.004066617228090763,0.012147491797804832
1685548208890775600,21.533775634765625,0.05089380219578743,-0.009337511844933033,0.0696909949183464
1685548208910775600,21.553775634765625,0.035587262362241745,0.005986479111015797,0.11037462204694748
1685548208930775600,21.573775634765624,0.03611086308956146,0.019896753132343292,0.08269369602203369
1685548208950775600,21.593775634765624,0.03118903376162052,0.01432915311306715,0.06276203691959381
1685548208970775600,21.613775634765624,0.0322536826133728,-0.014154620468616486,0.049008846282958984
1685548208990775600,21.633775634765627,0.0671253651380539,-0.028413960710167885,0.0067544239573180676
1685548209010775600,21.653775634765626,0.1080184280872345,-0.029827676713466644,-0.08628907799720764
1685548209030775600,21.673775634765626,0.11634364724159241,-0.0165631752461195,-0.13208651542663574
1685548209050775600,21.693775634765625,0.11587240546941757,-0.036390114575624466,-0.06148795038461685
1685548209070775600,21.713775634765625,-0.004433136433362961,-0.04213224723935127,0.08819148689508438
1685548209090775600,21.733775634765625,0.02028072625398636,-0.006265731994062662,0.19118335843086243
1685548209110775600,21.753775634765624,0.0010646508308127522,-0.05585053563117981,0.21783454716205597
1685548209130775600,21.773775634765624,0.02134537696838379,-0.09789551794528961,0.16716763377189636
1685548209150775600,21.793775634765623,0.08115781098604202,-0.090425506234169,0.08220500499010086
1685548209170775600,21.813775634765626,0.08759807795286179,-0.1059763953089714,-0.0008377580670639873
1685548209190775600,21.833775634765626,0.07566002011299133,-0.09372418373823166,-0.055867988616228104
1685548209210775600,21.853775634765626,0.059288833290338516,-0.07887142896652222,-0.024434609338641167
1685548209230775600,21.873775634765625,0.0492531917989254,-0.045553091913461685,0.06742206960916519
1685548209250775600,21.893775634765625,0.03384193405508995,-0.015847589820623398,0.1480737328529358
1685548209270775600,21.913775634765624,0.024958208203315735,-0.04680972918868065,0.16746434569358826
1685548209290775600,21.933775634765624,0.01762782596051693,-0.09039060026407242,0.15861551463603973
1685548209310775600,21.953775634765623,0.05133013427257538,-0.05984733998775482,0.12712977826595306
1685548209330775600,21.973775634765627,0.06417575478553772,0.029112091287970543,0.0673871636390686
1685548209350775600,21.993775634765626,0.0858527421951294,0.02316051907837391,-0.005061454605311155
1685548209370775600,22.013775634765626,0.09107127785682678,-0.01532399095594883,-0.06442010402679443
1685548209390775600,22.033775634765625,0.07946483790874481,-0.010646508075296879,-0.11541862040758133
1685548209410775600,22.053775634765625,0.05448918044567108,0.06379178166389465,-0.1241452693939209
1685548209430775600,22.073775634765624,0.044977135956287384,0.10218902677297592,-0.09480628371238708
1685548209450775600,22.093775634765624,0.040421824902296066,0.10965903848409653,-0.03230604529380798
1685548209470775600,22.113775634765624,0.019076447933912277,0.1431169956922531,0.06473426520824432
1685548209490775600,22.133775634765627,-0.002687806962057948,0.17875662446022034,0.14512412250041962
1685548209510775600,22.153775634765626,-0.018099064007401466,0.19228293001651764,0.11677998304367065
1685548209530775600,22.173775634765626,-0.015742870047688484,0.12487830966711044,0.04187044873833656
1685548209550775600,22.193775634765625,-0.027977628633379936,0.07482226192951202,-0.013404129073023796
1685548209570775600,22.213775634765625,-0.04948008432984352,0.06485643237829208,-0.0385892279446125
1685548209590775600,22.233775634765625,-0.05803219601511955,0.07094763219356537,-0.03757693991065025
1685548209610777300,22.25377734375,-0.03422590717673302,0.04539601504802704,-0.03241076320409775
1685548209630775600,22.273775634765624,-0.007976154796779156,0.04256857931613922,-0.026651177555322647
1685548209650775600,22.293775634765623,-0.0027925267349928617,0.030316369608044624,0.0228987205773592
1685548209670775600,22.313775634765626,-0.027139870449900627,0.036791540682315826,0.061243604868650436
1685548209690775600,22.333775634765626,-0.052726395428180695,0.02733185514807701,0.08321730047464371
1685548209710775600,22.353775634765626,-0.0475253164768219,-0.024818582460284233,0.09747663885354996
1685548209730775600,22.373775634765625,-0.06387905031442642,-0.003036872949451208,0.08705702424049377
1685548209750775600,22.393775634765625,-0.06857398897409439,0.04260348528623581,0.08403760194778442
1685548209770775600,22.413775634765624,-0.03136356547474861,0.027035150676965714,0.1074250116944313
1685548209790775600,22.433775634765624,0.0011344640515744686,0.01581268385052681,0.1229933500289917
1685548209810775600,22.453775634765623,0.02192133478820324,0.03295181691646576,0.11487757414579391
1685548209830775600,22.473775634765627,0.057822756469249725,0.013613567687571049,0.12782791256904602
1685548209850777300,22.49377734375,0.07524114102125168,0.02546435408294201,0.11311478912830353
1685548209870775600,22.513775634765626,0.06997025012969971,0.050160761922597885,0.05489060655236244
1685548209890775600,22.533775634765625,0.09876818209886551,0.018814649432897568,-0.017418386414647102
1685548209910775600,22.553775634765625,0.11503464728593826,0.021293016150593758,-0.0789063349366188
1685548209930775600,22.573775634765624,0.12966051697731018,0.04640830308198929,-0.08597491681575775
1685548209950775600,22.593775634765624,0.150325208902359,0.04335397854447365,-0.03389429301023483
1685548209970775600,22.613775634765624,0.15887732803821564,0.035499997437000275,0.019058994948863983
1685548209990775600,22.633775634765627,0.12287117540836334,0.04363323003053665,0.038955748081207275
1685548210010775600,22.653775634765626,0.06993534415960312,0.01710422709584236,0.013788101263344288
1685548210030775600,22.673775634765626,0.028239427134394646,0.002460914198309183,-0.022130774334073067
1685548210050775600,22.693775634765625,-0.010419615544378757,-0.008621926419436932,-0.0803549587726593
1685548210070775600,22.713775634765625,-0.041119955480098724,0.010629055090248585,-0.1108982190489769
1685548210090775600,22.733775634765625,-0.011885692365467548,0.008953538723289967,-0.039671335369348526
1685548210110775600,22.753775634765624,0.0027576202992349863,-0.00296705961227417,0.005777040030807257
1685548210130775600,22.773775634765624,-0.018901916220784187,-0.009354964829981327,0.02981022372841835
1685548210150775600,22.793775634765623,-0.014049900695681572,-0.025621432811021805,0.06045820564031601
1685548210170775600,22.813775634765626,-0.013142329640686512,0.0027052604127675295,0.04007275775074959
1685548210190775600,22.833775634765626,0.008848818950355053,-0.008429939858615398,0.02272418700158596
1685548210210775600,22.853775634765626,0.007888888008892536,-0.024783674627542496,0.052324969321489334
1685548210230775600,22.873775634765625,-0.01589994877576828,-0.04911356419324875,0.1106015145778656
1685548210250775600,22.893775634765625,-0.0269304309040308,-0.05136504024267197,0.12313298135995865
1685548210270775600,22.913775634765624,-0.00041887903353199363,-0.04312708601355553,0.056182149797677994
1685548210290775600,22.933775634765624,0.054681167006492615,-0.05408775433897972,0.01377064734697342
1685548210310775600,22.953775634765623,0.06085963174700737,-0.07454301416873932,0.0239110104739666
1685548210330775600,22.973775634765627,0.03862413763999939,-0.0869872123003006,0.007923794910311699
1685548210350775600,22.993775634765626,0.020559977740049362,-0.08574802428483963,-0.058485984802246094
1685548210370775600,23.013775634765626,-0.003717551240697503,-0.06059783324599266,-0.1215621829032898
1685548210390775600,23.033775634765625,-0.02785545401275158,-0.026424285024404526,-0.10796606540679932
1685548210410775600,23.053775634765625,-0.023684117943048477,-0.009040805511176586,-0.05230751633644104
1685548210430775600,23.073775634765624,-0.025813419371843338,0.0011868239380419254,0.0051312679424881935
1685548210450775600,23.093775634765624,-0.07560766488313675,0.007400196045637131,0.08367108553647995
1685548210470775600,23.113775634765624,-0.11737339198589325,0.0026179938577115536,0.1223999410867691
1685548210490775600,23.133775634765627,-0.10510372370481491,-0.035185836255550385,0.09672614932060242
1685548210510775600,23.153775634765626,-0.07407177239656448,-0.03785619139671326,0.0014137167017906904
1685548210530775600,23.173775634765626,-0.03265510872006416,-0.038117989897727966,-0.12170180678367615
1685548210550775600,23.193775634765625,0.015969762578606606,-0.04361577704548836,-0.1788438856601715
1685548210570775600,23.213775634765625,0.04194026067852974,-0.028291787952184677,-0.169942706823349
1685548210590775600,23.233775634765625,0.03703588619828224,-0.04159119725227356,-0.08061675727367401
1685548210610775600,23.253775634765624,-0.01630137488245964,-0.02321287989616394,0.08574802428483963
1685548210630775600,23.273775634765624,-0.08040732145309448,-0.013700834475457668,0.23366467654705048
1685548210650775600,23.293775634765623,-0.11798425763845444,-0.02281145378947258,0.27239352464675903
1685548210670775600,23.313775634765626,-0.12025318294763565,-0.010175269097089767,0.1912880837917328
1685548210690775600,23.333775634765626,-0.0863937959074974,0.0026354470755904913,0.0625002384185791
1685548210710775600,23.353775634765626,-0.050649452954530716,-0.007853982038795948,-0.03361504152417183
1685548210730775600,23.373775634765625,-0.027715828269720078,-0.009407324716448784,-0.09367182105779648
1685548210750775600,23.393775634765625,-0.01235693134367466,-0.0014660765882581472,-0.09859365224838257
1685548210770775600,23.413775634765624,-0.01567305624485016,-0.0068765971809625626,-0.01794198527932167
1685548210790775600,23.433775634765624,-0.03488913178443909,-0.005742133129388094,0.10924015939235687
1685548210810775600,23.453775634765623,-0.056810468435287476,0.00427605677396059,0.17863444983959198
1685548210830775600,23.473775634765627,-0.04970697686076164,-0.0013089969288557768,0.16831955313682556
1685548210850775600,23.493775634765626,-0.03363249450922012,-0.009773843921720982,0.12774065136909485
1685548210870775600,23.513775634765626,-0.005166174378246069,-0.007749261800199747,0.05251695588231087
1685548210890775600,23.533775634765625,0.024836035445332527,-0.003857177682220936,-0.03818780556321144
1685548210910775600,23.553775634765625,0.03326597437262535,-0.0067544239573180676,-0.08162904530763626
1685548210930775600,23.573775634765624,0.033859387040138245,-0.007871435023844242,-0.05331980809569359
1685548210950775600,23.593775634765624,0.016406094655394554,-0.005113814491778612,0.006457718089222908
1685548210970775600,23.613775634765624,-0.008796459063887596,0.0022689281031489372,0.0866905003786087
1685548210990777300,23.63377734375,-0.020350538194179535,0.004834562074393034,0.16838936507701874
1685548211010775600,23.653775634765626,-0.009686577133834362,-0.004206243436783552,0.1745678335428238
1685548211030775600,23.673775634765626,0.009512044489383698,-0.011536626145243645,0.09501572698354721
1685548211050775600,23.693775634765625,0.025656340643763542,-0.006771877408027649,-0.021118484437465668
1685548211070775600,23.713775634765625,0.04007275775074959,-0.01333431527018547,-0.1284911334514618
1685548211090775600,23.733775634765625,0.0570199079811573,-0.01516691129654646,-0.17327629029750824
1685548211110775600,23.753775634765624,0.07063347101211548,-0.001518436474725604,-0.1603957563638687
1685548211130775600,23.773775634765624,0.06281439960002899,0.000017453292457503267,-0.10510372370481491
1685548211150775600,23.793775634765623,0.0034732052590698004,0.009442231617867947,-0.005323254037648439
1685548211170775600,23.813775634765626,-0.05612978711724281,0.01851794309914112,0.1261523962020874
1685548211190775600,23.833775634765626,-0.07646287232637405,0.018046705052256584,0.17873917520046234
1685548211210775600,23.853775634765626,-0.05297074094414711,0.007260569836944342,0.09813986718654633
1685548211230775600,23.873775634765625,-0.0031066860537976027,-0.0013089969288557768,-0.046530477702617645
1685548211250775600,23.893775634765625,0.035639625042676926,-0.007260569836944342,-0.15934856235980988
1685548211270775600,23.913775634765624,0.06812020391225815,-0.0023561944253742695,-0.19203858077526093
1685548211290775600,23.933775634765624,0.05691518634557724,0.013369222171604633,-0.12224286049604416
1685548211310775600,23.953775634765623,0.00855211354792118,0.02542944625020027,0.032271139323711395
1685548211330775600,23.973775634765627,-0.03494149073958397,0.027785642072558403,0.18153169751167297
1685548211350775600,23.993775634765626,-0.04986405745148659,0.029618237167596817,0.2284112423658371
