time,seconds_elapsed,z,y,x
1685548187469926100,0.112926025390625,10.412986755371094,1.1115704774856567,1.394344687461853
1685548187489926100,0.132926025390625,9.38416862487793,1.5732778310775757,1.3374392986297607
1685548187509926100,0.152926025390625,8.29617691040039,1.9898593425750732,1.0198149681091309
1685548187549926100,0.192926025390625,8.99654769897461,2.006532669067383,0.8626500368118286
1685548187569926100,0.212926025390625,10.056163787841797,1.7624198198318481,0.9413426518440247
1685548187589926100,0.232926025390625,10.386448860168457,1.3720883131027222,0.9529784321784973
1685548187609924600,0.252924560546875,10.520313262939453,1.0782239437103271,0.8129368424415588
1685548187629924600,0.272924560546875,10.436325073242188,0.9425972104072571,0.7147649526596069
1685548187649926100,0.292926025390625,9.81868839263916,1.0373789072036743,0.5088827610015869
1685548187669924600,0.312924560546875,9.276124000549316,1.288549780845642,0.6589322090148926
1685548187689926100,0.332926025390625,9.182290077209473,1.442295789718628,0.8110023140907288
1685548187709924600,0.352924560546875,9.298667907714844,1.4317899942398071,0.6489818692207336
1685548187729924600,0.372924560546875,9.072195053100586,1.359255313873291,0.3108727037906647
1685548187749926100,0.392926025390625,8.737170219421387,1.3406667709350586,0.14057794213294983
1685548187769926100,0.412926025390625,8.920546531677246,1.2881187200546265,0.2415941059589386
1685548187789924600,0.432924560546875,9.557183265686035,1.0909323692321777,0.30124804377555847
1685548187809926100,0.452926025390625,10.170492172241211,0.9101606011390686,0.30153533816337585
1685548187829926100,0.472926025390625,10.368732452392578,0.6342527270317078,0.3521200120449066
1685548187849924600,0.492924560546875,10.54788589477539,0.6038463711738586,0.25048139691352844
1685548187869924600,0.512924560546875,10.632993698120117,0.6408320069313049,0.14895765483379364
1685548187889924600,0.532924560546875,10.210494041442871,0.8059457540512085,0.06655880808830261
1685548187909924600,0.552924560546875,9.744353294372559,1.1715116500854492,0.14460019767284393
1685548187929941800,0.572941650390625,9.663362503051758,1.4088057279586792,0.2724314332008362
1685548187949924600,0.592924560546875,9.548545837402344,1.4192637205123901,0.2989591658115387
1685548187969926100,0.612926025390625,9.349530220031738,1.4513171911239624,0.2813569903373718
1685548187989924600,0.632924560546875,9.479812622070312,1.5468649864196777,0.3601453900337219
1685548188009924600,0.652924560546875,9.63569450378418,1.5278263092041016,0.4382155239582062
1685548188029924600,0.672924560546875,9.846930503845215,1.5349705219268799,0.5368183255195618
1685548188049924600,0.692924560546875,9.964523315429688,1.5453901290893555,0.4700009524822235
1685548188069924600,0.712924560546875,9.810892105102539,1.4392216205596924,0.3239450752735138
1685548188089926100,0.732926025390625,9.824817657470703,1.2381852865219116,0.20194612443447113
1685548188109924600,0.752924560546875,10.152640342712402,1.077256679534912,0.11247959733009338
1685548188129924600,0.772924560546875,9.904936790466309,0.9683396816253662,-0.1315278559923172
1685548188149924600,0.792924560546875,9.51107120513916,0.9541947245597839,-0.1727464497089386
1685548188169924600,0.812924560546875,9.31762981414795,1.1003272533416748,-0.1639740914106369
1685548188189924600,0.832924560546875,9.65939712524414,1.1514290571212769,0.027993006631731987
1685548188209924600,0.852924560546875,9.693510055541992,1.1406073570251465,0.12292789667844772
1685548188229926100,0.872926025390625,9.7595796585083,1.1473397016525269,0.11382992565631866
1685548188249924600,0.892924560546875,9.70072078704834,1.1085537672042847,0.0933547168970108
1685548188269924600,0.912924560546875,9.565946578979492,1.0746805667877197,-0.011635820381343365
1685548188289924600,0.932924560546875,9.58493709564209,1.0392463207244873,0.055698707699775696
1685548188309924600,0.952924560546875,9.948512077331543,1.0948588848114014,0.21653160452842712
1685548188329924600,0.972924560546875,10.1290922164917,1.0826483964920044,0.26205018162727356
1685548188349924600,0.992924560546875,10.056442260742188,1.012661099433899,0.2290101796388626
1685548188369924600,1.012924560546875,9.92563247680664,1.0125174522399902,0.12584881484508514
1685548188389924600,1.032924560546875,9.850454330444336,1.0979809761047363,0.1258200854063034
1685548188409924600,1.052924560546875,9.78614616394043,1.1381651163101196,0.13810713589191437
1685548188429924600,1.072924560546875,9.681893348693848,1.1295939683914185,0.1598273366689682
1685548188449924600,1.092924560546875,9.74063777923584,1.1509501934051514,0.2505579888820648
1685548188469924600,1.112924560546875,9.924991607666016,1.1114459037780762,0.24993550777435303
1685548188489924600,1.132924560546875,9.93904972076416,0.9617125391960144,0.14379575848579407
1685548188509924600,1.152924560546875,9.814550399780273,0.8825601935386658,0.14415967464447021
1685548188529924600,1.172924560546875,9.722987174987793,0.9573742151260376,0.22484426200389862
1685548188549924600,1.192924560546875,9.72694206237793,1.0201884508132935,0.2614085078239441
1685548188569926100,1.212926025390625,9.656965255737305,0.992176353931427,0.19919759035110474
1685548188589926100,1.232926025390625,9.594917297363281,0.9534381628036499,0.17633773386478424
1685548188609924600,1.252924560546875,9.671224594116211,1.0269402265548706,0.2070888727903366
1685548188629941800,1.272941650390625,9.621358871459961,1.0727651119232178,0.26313236355781555
1685548188649924600,1.292924560546875,9.700471878051758,1.1042824983596802,0.34279224276542664
1685548188669924600,1.312924560546875,9.791585922241211,1.0731961727142334,0.29563602805137634
1685548188689924600,1.332924560546875,9.717691421508789,1.0427228212356567,0.2119443118572235
1685548188709924600,1.352924560546875,9.76738452911377,0.9728886485099792,0.16160860657691956
1685548188729924600,1.372924560546875,9.906210899353027,0.8841020464897156,0.14750199019908905
1685548188749924600,1.392924560546875,9.789737701416016,0.8941673040390015,0.17605043947696686
1685548188769924600,1.412924560546875,9.722058296203613,0.9980852007865906,0.1916893571615219
1685548188789924600,1.432924560546875,9.730399131774902,1.0071449279785156,0.19226397573947906
1685548188809924600,1.452924560546875,9.708086013793945,0.989590585231781,0.25504952669143677
1685548188829924600,1.472924560546875,9.652416229248047,0.9881445169448853,0.15743312239646912
1685548188849924600,1.492924560546875,9.664817810058594,0.9402413368225098,0.041841067373752594
1685548188869935600,1.512935546875,9.828696250915527,0.9885658621788025,0.15965496003627777
1685548188889924600,1.532924560546875,9.933772087097168,1.0617231130599976,0.3878989815711975
1685548188909924600,1.552924560546875,9.869905471801758,1.0391985177993774,0.4112759828567505
1685548188929924600,1.572924560546875,9.728235244750977,0.9741432070732117,0.3721642792224884
1685548188949924600,1.592924560546875,9.561723709106445,1.0105159282684326,0.29441019892692566
1685548188969924600,1.612924560546875,9.49489688873291,1.0420235395431519,0.2460951954126358
1685548188989924600,1.632924560546875,9.525226593017578,1.0305315256118774,0.23368367552757263
1685548189009924600,1.652924560546875,9.586555480957031,1.006034016609192,0.26341965794563293
1685548189029924600,1.672924560546875,9.916295051574707,0.87851881980896,0.25888025760650635
1685548189049924600,1.692924560546875,10.136561393737793,0.8418683409690857,0.23239079117774963
1685548189069924600,1.712924560546875,9.798442840576172,0.9260580539703369,0.16664601862430573
1685548189089924600,1.732924560546875,9.579794883728027,1.030416488647461,0.22451865673065186
1685548189109924600,1.752924560546875,9.774873733520508,1.0018105506896973,0.29003360867500305
1685548189129924600,1.772924560546875,9.866303443908691,0.8815737962722778,0.28200823068618774
1685548189149924600,1.792924560546875,9.732487678527832,0.9063298106193542,0.18971653282642365
1685548189169924600,1.812924560546875,9.640090942382812,0.9912856817245483,0.23242910206317902
1685548189189924600,1.832924560546875,9.7137451171875,1.0155246257781982,0.23368367552757263
1685548189209924600,1.852924560546875,9.771934509277344,0.9509865045547485,0.2476562261581421
1685548189229924600,1.872924560546875,9.65471363067627,0.9564931392669678,0.26460719108581543
1685548189249924600,1.892924560546875,9.75997257232666,0.96478670835495,0.3063715994358063
1685548189269924600,1.912924560546875,9.763276100158691,1.0256282091140747,0.3022536039352417
1685548189289924600,1.932924560546875,9.667613983154297,0.9632160663604736,0.20867861807346344
1685548189309924600,1.952924560546875,9.748404502868652,0.9733866453170776,0.200088232755661
1685548189329941800,1.972941650390625,9.980095863342285,0.9892362952232361,0.24622927606105804
1685548189349924600,1.992924560546875,9.806659698486328,1.0270837545394897,0.27150246500968933
1685548189369924600,2.012924560546875,9.710546493530273,1.0793061256408691,0.22308214008808136
1685548189389924600,2.032924560546875,9.752033233642578,0.9897438287734985,0.13534902036190033
1685548189409924600,2.052924560546875,9.77615737915039,0.8700816035270691,0.0738084465265274
1685548189429924600,2.072924560546875,9.69511890411377,0.9232616424560547,0.07906611263751984
1685548189449924600,2.092924560546875,9.81885051727295,0.9273413419723511,0.16231729090213776
1685548189469924600,2.112924560546875,9.894392967224121,0.8921753168106079,0.16293978691101074
1685548189489924600,2.132924560546875,9.726827621459961,0.9773802161216736,0.12780249118804932
1685548189509924600,2.152924560546875,9.610085487365723,1.0133028030395508,0.18074306845664978
1685548189529924600,2.172924560546875,9.755232810974121,0.993172287940979,0.21925142407417297
1685548189549924600,2.192924560546875,9.739450454711914,0.9492147564888,0.06464345008134842
1685548189569924600,2.212924560546875,9.585664749145508,0.9837296009063721,0.042243294417858124
1685548189589924600,2.232924560546875,9.757550239562988,1.0518302917480469,0.25808537006378174
1685548189609926100,2.252926025390625,9.964667320251465,1.0428663492202759,0.3561997413635254
1685548189629924600,2.272924560546875,9.92607307434082,0.9248322248458862,0.26800692081451416
1685548189649924600,2.292924560546875,9.61819839477539,0.9106202125549316,0.15885049104690552
1685548189669924600,2.312924560546875,9.590885162353516,1.0038409233093262,0.1768070012331009
1685548189689924600,2.332924560546875,9.750961303710938,1.030368685722351,0.16095739603042603
1685548189709924600,2.352924560546875,9.80980110168457,1.0756765604019165,0.20853497087955475
1685548189729924600,2.372924560546875,9.885150909423828,1.0895533561706543,0.2922075092792511
1685548189749924600,2.392924560546875,9.973172187805176,1.0153425931930542,0.26288336515426636
1685548189769924600,2.412924560546875,9.73904800415039,1.0166738033294678,0.09435070306062698
1685548189789924600,2.432924560546875,9.515707015991211,1.0786453485488892,0.02648944780230522
1685548189809924600,2.452924560546875,9.615296363830566,1.110392451286316,0.06463386863470078
1685548189829924600,2.472924560546875,9.720650672912598,0.9653229713439941,0.03447650372982025
1685548189849924600,2.492924560546875,9.587417602539062,0.9009476900100708,0.15003982186317444
1685548189869924600,2.512924560546875,8.874329566955566,0.6284012794494629,0.480937659740448
1685548189889924600,2.532924560546875,10.182578086853027,1.3072627782821655,0.04935886338353157
1685548189909924600,2.552924560546875,9.829519271850586,1.1790199279785156,0.5766482353210449
1685548189929924600,2.572924560546875,9.737295150756836,1.1263090372085571,0.36409103870391846
1685548189949924600,2.592924560546875,9.698030471801758,1.1294695138931274,0.3352361023426056
1685548189969926100,2.612926025390625,9.88338851928711,1.2056529521942139,0.41585367918014526
1685548189989924600,2.632924560546875,9.719980239868164,1.191584587097168,0.49657660722732544
1685548190009924600,2.652924560546875,9.683052062988281,1.14374840259552,0.37605246901512146
1685548190029941800,2.672941650390625,9.66884994506836,1.1358188390731812,0.3430987000465393
1685548190049924600,2.692924560546875,9.613447189331055,1.105173110961914,0.30951282382011414
1685548190069924600,2.712924560546875,9.54738712310791,1.0867856740951538,0.3012767732143402
1685548190089924600,2.732924560546875,9.643451690673828,1.0656017065048218,0.28966009616851807
1685548190109924600,2.752924560546875,9.148359298706055,0.7088752388954163,0.3686017096042633
1685548190129924600,2.772924560546875,8.12817096710205,0.7560218572616577,-0.08041644841432571
1685548190149924600,2.792924560546875,9.551294326782227,0.9589639902114868,-0.23974579572677612
1685548190169924600,2.812924560546875,10.004220008850098,1.0499627590179443,0.3491224944591522
1685548190189924600,2.832924560546875,10.506800651550293,0.8464077711105347,0.9916495680809021
1685548190209924600,2.852924560546875,10.493853569030762,0.6904398798942566,1.2497349977493286
1685548190229924600,2.872924560546875,10.493595123291016,0.6400754451751709,1.3410497903823853
1685548190249924600,2.892924560546875,10.401235580444336,0.8257793188095093,1.5950937271118164
1685548190269924600,2.912924560546875,9.79300308227539,0.566238284111023,1.4727500677108765
1685548190289924600,2.932924560546875,9.892659187316895,0.5125027894973755,1.0619146823883057
1685548190309924600,2.952924560546875,10.004305839538574,0.6300868391990662,1.16385018825531
1685548190329924600,2.972924560546875,9.954764366149902,0.8682907819747925,1.4735065698623657
1685548190349924600,2.992924560546875,9.643231391906738,0.7770812511444092,1.302196741104126
1685548190369924600,3.012924560546875,9.395058631896973,0.903533399105072,1.240818977355957
1685548190389924600,3.032924560546875,8.880697250366211,1.48274827003479,1.3505022525787354
1685548190409924600,3.052924560546875,8.602826118469238,1.630614161491394,0.8830869197845459
1685548190429924600,3.072924560546875,8.985908508300781,1.3953120708465576,0.365872323513031
1685548190449924600,3.092924560546875,9.155733108520508,1.1754859685897827,0.5662190914154053
1685548190469924600,3.112924560546875,9.60659122467041,1.1869972944259644,0.5646102428436279
1685548190489924600,3.132924560546875,9.703450202941895,1.010448932647705,0.6504375338554382
1685548190509924600,3.152924560546875,9.514548301696777,0.7449702024459839,0.9100934863090515
1685548190529924600,3.172924560546875,9.977740287780762,0.8705700635910034,0.8680034875869751
1685548190549924600,3.192924560546875,10.143648147583008,1.08048415184021,0.9077376127243042
1685548190569924600,3.212924560546875,9.737112998962402,1.240158200263977,1.039686918258667
1685548190589924600,3.232924560546875,9.637840270996094,1.089706540107727,1.0524048805236816
1685548190609924600,3.252924560546875,9.618791580200195,0.9178124666213989,1.149341344833374
1685548190629924600,3.272924560546875,9.648058891296387,1.0227454900741577,1.2850350141525269
1685548190649924600,3.292924560546875,9.763564109802246,1.2921123504638672,1.309532642364502
1685548190669924600,3.312924560546875,9.431057929992676,1.0847073793411255,1.421178936958313
1685548190689924600,3.332924560546875,9.612500190734863,1.1077587604522705,1.517837643623352
1685548190709924600,3.352924560546875,9.616981506347656,1.1259738206863403,1.795737385749817
1685548190729941800,3.372941650390625,9.547568321228027,0.6394433975219727,1.6164213418960571
1685548190749924600,3.392924560546875,9.813593864440918,0.5434359312057495,1.1790677309036255
1685548190769924600,3.412924560546875,10.0958890914917,0.6422110795974731,1.081748127937317
1685548190789926100,3.432926025390625,10.026437759399414,0.6669192314147949,1.013321876525879
1685548190809926100,3.452926025390625,10.301675796508789,0.23749524354934692,0.6242737174034119
1685548190829926100,3.472926025390625,10.217341423034668,-0.31984618306159973,0.4732283353805542
1685548190849924600,3.492924560546875,10.169553756713867,-0.17335936427116394,0.46976155042648315
1685548190869924600,3.512924560546875,10.86384391784668,0.865523099899292,0.9887478351593018
1685548190889924600,3.532924560546875,9.372130393981934,1.1727852821350098,1.2636979818344116
1685548190909924600,3.552924560546875,8.955521583557129,0.8747455477714539,1.2894787788391113
1685548190929924600,3.572924560546875,9.804773330688477,0.6946632862091064,0.8758755922317505
1685548190949924600,3.592924560546875,9.742993354797363,0.20394767820835114,0.5340123176574707
1685548190969924600,3.612924560546875,9.587695121765137,0.10636959224939346,0.5159887671470642
1685548190989924600,3.632924560546875,10.06895923614502,0.4612860381603241,0.8725524544715881
1685548191009924600,3.652924560546875,9.75871753692627,0.5524859428405762,0.9248130321502686
1685548191029924600,3.672924560546875,9.575878143310547,0.6539618372917175,0.7474601864814758
1685548191049926100,3.692926025390625,9.522449493408203,0.9041463136672974,0.9535435438156128
1685548191069924600,3.712924560546875,9.447423934936523,1.1119534969329834,1.320497989654541
1685548191089924600,3.732924560546875,9.20380973815918,0.8948185443878174,1.03913152217865
1685548191109924600,3.752924560546875,9.348591804504395,0.39001545310020447,0.721028208732605
1685548191129924600,3.772924560546875,10.39493465423584,0.562445878982544,0.7783454060554504
1685548191149924600,3.792924560546875,9.71157169342041,-0.14070244133472443,0.09898588061332703
1685548191169924600,3.812924560546875,9.549062728881836,1.1522048711776733,0.8347336649894714
1685548191189924600,3.832924560546875,9.488672256469727,0.9110320210456848,1.1184560060501099
1685548191209924600,3.852924560546875,9.807607650756836,0.6021321415901184,0.613308310508728
1685548191229924600,3.872924560546875,10.09146499633789,0.608251690864563,0.6247142553329468
1685548191249924600,3.892924560546875,10.004785537719727,1.0154670476913452,1.147291898727417
1685548191269924600,3.912924560546875,10.182903289794922,0.8022490739822388,1.117613434791565
1685548191289924600,3.932924560546875,9.812894821166992,0.622521162033081,0.8969062566757202
1685548191309924600,3.952924560546875,9.803375244140625,0.7380079030990601,0.8454117774963379
1685548191329924600,3.972924560546875,9.988503456115723,0.5315319299697876,0.5665735006332397
1685548191349924600,3.992924560546875,9.620380401611328,0.12780249118804932,0.2885396182537079
1685548191369924600,4.012924560546875,9.658794403076172,1.0121057033538818,0.8604282140731812
1685548191389924600,4.032924560546875,9.609454154968262,1.1703910827636719,0.8694112300872803
1685548191409924600,4.052924560546875,9.55179214477539,0.8670936822891235,0.5079346895217896
1685548191429924600,4.072924560546875,9.506359100341797,0.6361393928527832,0.24885331094264984
1685548191449924600,4.092924560546875,9.46070671081543,0.8659923076629639,0.505942702293396
1685548191469924600,4.112924560546875,9.511445045471191,0.8069322109222412,0.4618319272994995
1685548191489924600,4.132924560546875,9.592177391052246,0.8249652981758118,0.4096958041191101
1685548191509924600,4.152924560546875,9.75098991394043,0.8981608152389526,0.6077249646186829
1685548191529924600,4.172924560546875,9.730744361877441,0.914776623249054,0.6562889814376831
1685548191549924600,4.192924560546875,9.853299140930176,0.8636268377304077,0.6269552707672119
1685548191569924600,4.212924560546875,9.912627220153809,0.7579371929168701,0.46450385451316833
1685548191589924600,4.232924560546875,9.78538990020752,0.8283076286315918,0.5265615582466125
1685548191609924600,4.252924560546875,9.879098892211914,0.811959981918335,0.5899983644485474
1685548191629926100,4.272926025390625,10.015481948852539,0.748417854309082,0.4649922847747803
1685548191649926100,4.292926025390625,9.796431541442871,0.6534925699234009,0.40710049867630005
1685548191669924600,4.312924560546875,9.792533874511719,0.8159439563751221,0.6268977522850037
1685548191689924600,4.332924560546875,9.803662300109863,0.7673129439353943,0.5262933969497681
1685548191709924600,4.352924560546875,9.713754653930664,0.68864905834198,0.36073917150497437
1685548191729924600,4.372924560546875,9.548306465148926,0.6960040330886841,0.3274214565753937
1685548191749926100,4.392926025390625,9.467257499694824,0.7884968519210815,0.3983568549156189
1685548191769924600,4.412924560546875,9.651017189025879,0.8698709011077881,0.44748586416244507
1685548191789924600,4.432924560546875,9.778428077697754,1.0082941055297852,0.6895204782485962
1685548191809924600,4.452924560546875,9.80184268951416,1.0994939804077148,0.9087623357772827
1685548191829924600,4.472924560546875,9.798710823059082,0.9126792550086975,0.7510993480682373
1685548191849924600,4.492924560546875,9.757003784179688,0.6598802804946899,0.5055692195892334
1685548191869924600,4.512924560546875,9.763870239257812,0.6869634985923767,0.42441534996032715
1685548191889924600,4.532924560546875,9.632850646972656,0.673393189907074,0.28250622749328613
1685548191909924600,4.552924560546875,9.786567687988281,0.7941088080406189,0.3718961477279663
1685548191929924600,4.572924560546875,9.966850280761719,0.8329331874847412,0.5318766832351685
1685548191949924600,4.592924560546875,9.971696853637695,0.7041922211647034,0.534950852394104
1685548191969924600,4.612924560546875,9.893454551696777,0.6220231652259827,0.42551669478416443
1685548191989924600,4.632924560546875,9.73178768157959,0.667110800743103,0.36777809262275696
1685548192009924600,4.652924560546875,9.693950653076172,0.7310263514518738,0.3820666968822479
1685548192029924600,4.672924560546875,9.7080659866333,0.791264533996582,0.38675934076309204
1685548192049924600,4.692924560546875,9.538480758666992,0.7672267556190491,0.3782072365283966
1685548192069924600,4.712924560546875,9.627084732055664,0.8447701334953308,0.46382391452789307
1685548192089924600,4.732924560546875,9.675629615783691,0.9012349843978882,0.5428038239479065
1685548192109924600,4.752924560546875,9.624183654785156,0.9411798715591431,0.5140925645828247
1685548192129924600,4.772924560546875,9.709877014160156,0.8619987964630127,0.46942633390426636
1685548192149926100,4.792926025390625,9.926139831542969,0.7016734480857849,0.38629963994026184
1685548192169924600,4.812924560546875,9.73996639251709,0.6860153675079346,0.3643878996372223
1685548192189924600,4.832924560546875,9.765546798706055,0.7103500962257385,0.2950039803981781
1685548192209924600,4.852924560546875,9.73801326751709,0.752861499786377,0.289775013923645
1685548192229924600,4.872924560546875,9.792370796203613,0.7525838017463684,0.3213880658149719
1685548192249924600,4.892924560546875,9.77796745300293,0.7645068764686584,0.32361945509910583
1685548192269924600,4.912924560546875,9.738147735595703,0.7460524439811707,0.2604125440120697
1685548192289924600,4.932924560546875,9.694342613220215,0.7464163303375244,0.24022462964057922
1685548192309924600,4.952924560546875,9.719022750854492,0.7396263480186462,0.26476040482521057
1685548192329924600,4.972924560546875,9.841471672058105,0.8022969961166382,0.36992332339286804
1685548192349924600,4.992924560546875,9.849563598632812,0.8348677158355713,0.3953210115432739
1685548192369924600,5.012924560546875,9.837957382202148,0.7823389172554016,0.37153223156929016
1685548192389924600,5.032924560546875,9.788885116577148,0.832301139831543,0.34895968437194824
1685548192409924600,5.052924560546875,9.74716854095459,0.8716522455215454,0.42177215218544006
1685548192429924600,5.072924560546875,9.746488571166992,0.8006018400192261,0.32902076840400696
1685548192449926100,5.092926025390625,9.69739818572998,0.7012616395950317,0.1523669958114624
1685548192469926100,5.112926025390625,9.55850601196289,0.7283161878585815,0.14128664135932922
1685548192489924600,5.132924560546875,9.577898025512695,0.6498150825500488,0.19318334758281708
1685548192509924600,5.152924560546875,9.828417778015137,0.7518367767333984,0.29434317350387573
1685548192529924600,5.172924560546875,9.699859619140625,0.7729536890983582,0.19343234598636627
1685548192549926100,5.192926025390625,9.794507026672363,0.845488429069519,0.30887117981910706
1685548192569926100,5.212926025390625,9.928946495056152,0.887520968914032,0.5358989238739014
1685548192589924600,5.232924560546875,9.938225746154785,0.7479581832885742,0.4771260917186737
1685548192609924600,5.252924560546875,9.788951873779297,0.6531956791877747,0.32439517974853516
1685548192629924600,5.272924560546875,9.600375175476074,0.6820218563079834,0.24739764630794525
1685548192649924600,5.292924560546875,9.462345123291016,0.7938119769096375,0.21584206819534302
1685548192669924600,5.312924560546875,9.583529472351074,0.7968190312385559,0.2211093157529831
1685548192689924600,5.332924560546875,9.766197204589844,0.7698220014572144,0.32170408964157104
1685548192709924600,5.352924560546875,9.974244117736816,0.7381707429885864,0.4824986755847931
1685548192729924600,5.372924560546875,10.116191864013672,0.7465216517448425,0.4557602107524872
1685548192749924600,5.392924560546875,9.811755180358887,0.7705786228179932,0.3302849233150482
1685548192769924600,5.412924560546875,9.649772644042969,0.7525454759597778,0.22268947958946228
1685548192789924600,5.432924560546875,9.639400482177734,0.692537248134613,0.29175740480422974
1685548192809926100,5.452926025390625,9.697100639343262,0.6542969942092896,0.3149237036705017
1685548192829924600,5.472924560546875,9.724940299987793,0.621343195438385,0.2937110960483551
1685548192849924600,5.492924560546875,9.726348876953125,0.6400945782661438,0.24021504819393158
1685548192869924600,5.512924560546875,9.693586349487305,0.693954586982727,0.29294493794441223
1685548192889924600,5.532924560546875,9.832286834716797,0.7492032051086426,0.3507026731967926
1685548192909924600,5.552924560546875,9.760490417480469,0.7895598411560059,0.3825168013572693
1685548192929924600,5.572924560546875,9.870067596435547,0.7727046608924866,0.44339656829833984
1685548192949924600,5.592924560546875,9.786136627197266,0.6971532106399536,0.40593209862709045
1685548192969924600,5.612924560546875,9.747092247009277,0.7338898181915283,0.3778337836265564
1685548192989924600,5.632924560546875,9.74138355255127,0.6530903577804565,0.2615809142589569
1685548193009924600,5.652924560546875,9.711294174194336,0.6183169484138489,0.26194483041763306
1685548193029924600,5.672924560546875,9.738387107849121,0.6502843499183655,0.29407501220703125
1685548193049924600,5.692924560546875,9.836626052856445,0.6118143200874329,0.2656989097595215
1685548193069924600,5.712924560546875,9.865260124206543,0.5888395309448242,0.2643677294254303
1685548193089924600,5.732924560546875,9.876320838928223,0.581714391708374,0.2733508050441742
1685548193109924600,5.752924560546875,9.85974407196045,0.6656838655471802,0.3075495660305023
1685548193129924600,5.772924560546875,9.745464324951172,0.7137211561203003,0.35312560200691223
1685548193149924600,5.792924560546875,9.761695861816406,0.7263816595077515,0.3839150369167328
1685548193169924600,5.812924560546875,9.866753578186035,0.6630789637565613,0.3832733631134033
1685548193189924600,5.832924560546875,9.843214988708496,0.6506003141403198,0.4241759479045868
1685548193209924600,5.852924560546875,9.756093978881836,0.6793116331100464,0.3396797478199005
1685548193229924600,5.872924560546875,9.625638961791992,0.7387452721595764,0.2069835215806961
1685548193249924600,5.892924560546875,9.6483736038208,0.6573998928070068,0.15877388417720795
1685548193269924600,5.912924560546875,9.800108909606934,0.6406213641166687,0.2111302763223648
1685548193289924600,5.932924560546875,9.741949081420898,0.6390028595924377,0.017161637544631958
1685548193309924600,5.952924560546875,9.683195114135742,0.757716953754425,0.15210843086242676
1685548193329926100,5.972926025390625,10.057074546813965,0.7893012762069702,0.41435012221336365
1685548193349924600,5.992924560546875,10.12399673461914,0.7352593541145325,0.41759663820266724
1685548193369924600,6.012924560546875,9.79638385772705,0.6640079021453857,0.2616192102432251
1685548193389924600,6.032924560546875,9.77236557006836,0.6003221273422241,0.22636698186397552
1685548193409924600,6.052924560546875,9.720793724060059,0.6580511331558228,0.14142070710659027
1685548193429924600,6.072924560546875,9.651055335998535,0.7773972749710083,0.14622825384140015
1685548193449924600,6.092924560546875,9.70617961883545,0.8742284178733826,0.20522138476371765
1685548193469924600,6.112924560546875,10.11306095123291,0.8398572206497192,0.43148303031921387
1685548193489924600,6.132924560546875,10.333335876464844,0.7459566593170166,0.5582991242408752
1685548193509924600,6.152924560546875,10.162227630615234,0.8139327764511108,0.7357285618782043
1685548193529924600,6.172924560546875,9.862242698669434,0.7563762068748474,0.722110390663147
1685548193549924600,6.192924560546875,9.671712875366211,0.578036904335022,0.6236608028411865
1685548193569924600,6.212924560546875,9.353705406188965,0.4690815806388855,0.3244430422782898
1685548193589924600,6.232924560546875,9.266441345214844,0.44385626912117004,0.23389434814453125
1685548193609926100,6.252926025390625,9.414470672607422,0.6271371841430664,0.29715874791145325
1685548193629926100,6.272926025390625,9.677420616149902,0.8653507232666016,0.6544694304466248
1685548193649924600,6.292924560546875,10.051883697509766,1.1027309894561768,1.056369662284851
1685548193669924600,6.312924560546875,10.0792818069458,1.1410573720932007,1.1411913633346558
1685548193689924600,6.332924560546875,9.759187698364258,1.0519644021987915,1.0205906629562378
1685548193709924600,6.352924560546875,9.64653491973877,0.7891863584518433,0.7476517558097839
1685548193729926100,6.372926025390625,9.57387638092041,0.7043933272361755,0.6651666760444641
1685548193749926100,6.392926025390625,9.402843475341797,0.6988674998283386,0.6582043170928955
1685548193769926100,6.412926025390625,9.506551742553711,0.7257112264633179,0.7766981720924377
1685548193789926100,6.432926025390625,9.657845497131348,0.699039876461029,0.8792945146560669
1685548193809924600,6.452924560546875,9.906076431274414,0.7825592160224915,1.0547798871994019
1685548193829924600,6.472924560546875,9.90856647491455,0.9060521125793457,1.0093475580215454
1685548193849926100,6.492926025390625,9.531020164489746,0.862937331199646,0.8030440211296082
1685548193869926100,6.512926025390625,9.74579906463623,0.8878465890884399,0.8848490715026855
1685548193889926100,6.532926025390625,9.851861953735352,0.9136177897453308,1.017076015472412
1685548193909924600,6.552924560546875,9.763755798339844,0.9020968675613403,1.0332225561141968
1685548193929924600,6.572924560546875,9.887680053710938,0.8682524561882019,1.2209758758544922
1685548193949924600,6.592924560546875,10.179206848144531,0.8792562484741211,1.5364837646484375
1685548193969924600,6.612924560546875,10.329964637756348,0.8648717999458313,1.5665836334228516
1685548193989924600,6.632924560546875,9.760940551757812,0.9332502484321594,1.4647438526153564
1685548194009924600,6.652924560546875,9.432695388793945,0.8855385780334473,1.2996876239776611
1685548194029924600,6.672924560546875,9.304892539978027,0.8237202763557434,1.2586510181427002
1685548194049924600,6.692924560546875,9.16357707977295,0.820502519607544,1.287505865097046
1685548194069926100,6.712926025390625,9.193925857543945,1.0083131790161133,1.2417384386062622
1685548194089926100,6.732926025390625,9.187289237976074,1.0341706275939941,1.3236199617385864
1685548194109924600,6.752924560546875,10.090458869934082,0.9174389839172363,1.7127351760864258
1685548194129924600,6.772924560546875,10.846854209899902,0.7700614333152771,2.1221916675567627
1685548194149924600,6.792924560546875,10.7484712600708,0.8121706247329712,2.141603708267212
1685548194169924600,6.812924560546875,9.875919342041016,0.9124206900596619,1.7287381887435913
1685548194189924600,6.832924560546875,9.053386688232422,0.9737218022346497,1.2590914964675903
1685548194209926100,6.852926025390625,8.73210334777832,0.8967722058296204,0.935998797416687
1685548194229924600,6.872924560546875,8.809350967407227,0.8212111592292786,0.9181572198867798
1685548194249924600,6.892924560546875,9.390901565551758,0.6305369734764099,1.0631405115127563
1685548194269924600,6.912924560546875,10.090104103088379,0.6579936742782593,1.4305546283721924
1685548194289924600,6.932924560546875,10.244865417480469,0.7810077667236328,1.6069306135177612
1685548194309924600,6.952924560546875,10.208368301391602,0.9225146770477295,1.6352876424789429
1685548194329924600,6.972924560546875,10.353590965270996,0.8789593577384949,1.6379404067993164
1685548194349924600,6.992924560546875,10.410927772521973,0.722119927406311,1.5177322626113892
1685548194369924600,7.012924560546875,9.894881248474121,0.7524976134300232,1.292150616645813
1685548194389926100,7.032926025390625,9.206653594970703,0.851895272731781,1.0863738059997559
1685548194409924600,7.052924560546875,9.150322914123535,0.8527092933654785,0.9281554222106934
1685548194429926100,7.072926025390625,9.210676193237305,0.7593450546264648,0.8928840160369873
1685548194449924600,7.092924560546875,9.439446449279785,0.787165641784668,1.0189818143844604
1685548194469924600,7.112924560546875,9.792064666748047,0.9380769729614258,1.333982229232788
1685548194489924600,7.132924560546875,10.11949634552002,1.0210599899291992,1.4837634563446045
1685548194509924600,7.152924560546875,10.372926712036133,1.024871587753296,1.601357102394104
1685548194529924600,7.172924560546875,10.40146541595459,0.9804447889328003,1.5080502033233643
1685548194549924600,7.192924560546875,9.878705978393555,0.8612135052680969,1.1392472982406616
1685548194569924600,7.212924560546875,9.553017616271973,0.7880467176437378,0.8885361552238464
1685548194589924600,7.232924560546875,9.458791732788086,0.8486775159835815,0.8336610198020935
1685548194609924600,7.252924560546875,9.3898286819458,0.8383249640464783,0.8214314579963684
1685548194629924600,7.272924560546875,9.60815143585205,0.8438220024108887,0.8862472772598267
1685548194649924600,7.292924560546875,9.867339134216309,0.8164515495300293,1.0433164834976196
1685548194669924600,7.312924560546875,10.011316299438477,0.7942237257957458,1.1224017143249512
1685548194689924600,7.332924560546875,9.847447395324707,0.7567880153656006,0.9700539112091064
1685548194709924600,7.352924560546875,9.434591293334961,0.8219485878944397,0.9046347737312317
1685548194729924600,7.372924560546875,9.382397651672363,0.9447328448295593,0.939369797706604
1685548194749924600,7.392924560546875,9.489150047302246,0.9998569488525391,0.9682151675224304
1685548194769924600,7.412924560546875,9.709033966064453,0.9377704858779907,1.1055561304092407
1685548194789924600,7.432924560546875,9.990495681762695,0.8948089480400085,1.1857044696807861
1685548194809924600,7.452924560546875,10.075528144836426,0.7715362906455994,1.0263080596923828
1685548194829924600,7.472924560546875,9.928916931152344,0.7774451971054077,0.7941854000091553
1685548194849924600,7.492924560546875,9.825889587402344,0.8718820810317993,0.9459490776062012
1685548194869926100,7.512926025390625,9.822930335998535,0.8450095057487488,0.9376842975616455
1685548194889924600,7.532924560546875,9.676596641540527,0.839771032333374,0.8688271045684814
1685548194909924600,7.552924560546875,9.594781875610352,0.9090209603309631,0.8843798041343689
1685548194929924600,7.572924560546875,9.721895217895508,0.9457383751869202,0.987723171710968
1685548194949926100,7.592926025390625,9.867079734802246,0.9533807039260864,1.1227082014083862
1685548194969924600,7.612924560546875,10.05669116973877,0.9397720098495483,1.2293555736541748
1685548194989926100,7.632926025390625,10.008979797363281,0.9161173105239868,1.2786282300949097
1685548195009924600,7.652924560546875,9.824060440063477,0.9042708277702332,1.1981829404830933
1685548195029924600,7.672924560546875,9.52563762664795,0.8801851868629456,1.0224581956863403
1685548195049924600,7.692924560546875,9.340604782104492,0.9549416899681091,0.8516653776168823
1685548195069924600,7.712924560546875,9.345412254333496,0.9550182819366455,0.8617880940437317
1685548195089924600,7.732924560546875,9.728608131408691,0.8578233122825623,1.0326000452041626
1685548195109924600,7.752924560546875,10.037737846374512,0.890978217124939,1.2038333415985107
1685548195129924600,7.772924560546875,9.963805198669434,0.9232807755470276,1.3009229898452759
1685548195149924600,7.792924560546875,10.0178861618042,0.9378279447555542,1.1787039041519165
1685548195169924600,7.812924560546875,9.695511817932129,0.9627946615219116,1.0665305852890015
1685548195189924600,7.832924560546875,9.621865272521973,1.0258675813674927,1.0814417600631714
1685548195209926100,7.852926025390625,9.704838752746582,0.9726012945175171,1.1891329288482666
1685548195229924600,7.872924560546875,9.653047561645508,0.9603238701820374,1.1165790557861328
1685548195249924600,7.892924560546875,9.345746994018555,0.9743251800537109,0.9425780773162842
1685548195269924600,7.912924560546875,9.397586822509766,0.9357689023017883,0.9362764954566956
1685548195289926100,7.932926025390625,9.740100860595703,0.8916964530944824,1.237572431564331
1685548195309924600,7.952924560546875,9.818927764892578,0.8638184070587158,1.4556841850280762
1685548195329924600,7.972924560546875,10.197298049926758,0.9314019083976746,1.4228836297988892
1685548195349924600,7.992924560546875,9.82027816772461,1.0880688428878784,1.3209673166275024
1685548195369924600,8.012924560546875,9.5171537399292,1.0915166139602661,1.17709481716156
1685548195389924600,8.032924560546874,9.804811477661133,0.9208195805549622,1.2591298818588257
1685548195409924600,8.052924560546876,9.820958137512207,0.9100552201271057,1.2234275341033936
1685548195429924600,8.072924560546875,9.404711723327637,0.9833465218544006,1.1829750537872314
1685548195449924600,8.092924560546875,9.914178848266602,0.8541170358657837,1.3420170545578003
1685548195469924600,8.112924560546874,10.32569408416748,0.8121515512466431,1.4842231273651123
1685548195489924600,8.132924560546876,10.000828742980957,0.9288257360458374,1.4485304355621338
1685548195509924600,8.152924560546875,9.584486961364746,1.0310007333755493,1.2717233896255493
1685548195529924600,8.172924560546875,9.479717254638672,0.9954037666320801,1.1660815477371216
1685548195549924600,8.192924560546874,9.549484252929688,0.9435357451438904,1.1829653978347778
1685548195569924600,8.212924560546876,9.833781242370605,0.8131187558174133,1.1795275211334229
1685548195589924600,8.232924560546875,10.032299041748047,0.8437836766242981,1.2910206317901611
1685548195609924600,8.252924560546875,9.83543872833252,0.9759914875030518,1.4371147155761719
1685548195629924600,8.272924560546874,9.738396644592285,0.9862004518508911,1.4655770063400269
1685548195649924600,8.292924560546876,9.888139724731445,0.8753297328948975,1.4411370754241943
1685548195669924600,8.312924560546875,9.68889331817627,0.8596524596214294,1.403308629989624
1685548195689926100,8.332926025390625,9.510994911193848,0.8580052256584167,1.2574729919433594
1685548195709924600,8.352924560546874,9.392596244812012,0.9275233149528503,1.1412489414215088
1685548195729924600,8.372924560546876,9.264345169067383,0.8954601287841797,1.11664617061615
1685548195749924600,8.392924560546875,9.708574295043945,0.720252513885498,1.2827750444412231
1685548195769924600,8.412924560546875,10.210734367370605,0.7099669575691223,1.5377287864685059
1685548195789924600,8.432924560546875,9.94589614868164,0.8330768346786499,1.4647917747497559
1685548195809924600,8.452924560546874,9.608611106872559,0.8748221397399902,1.409916639328003
1685548195829924600,8.472924560546875,9.789460182189941,0.8389282822608948,1.3700484037399292
1685548195849924600,8.492924560546875,9.56814956665039,0.8284704089164734,1.2719149589538574
1685548195869924600,8.512924560546875,9.418645858764648,0.835442304611206,1.2852745056152344
1685548195889924600,8.532924560546874,9.73658561706543,0.8536574244499207,1.3326605558395386
1685548195909924600,8.552924560546876,9.939825057983398,0.7977001070976257,1.3839443922042847
1685548195929924600,8.572924560546875,10.270618438720703,0.733066201210022,1.4078001976013184
1685548195949924600,8.592924560546875,10.104459762573242,0.7091242074966431,1.3394887447357178
1685548195969924600,8.612924560546874,9.75468635559082,0.7199077010154724,1.2425236701965332
1685548195989926100,8.632926025390624,9.545997619628906,0.7956602573394775,1.2821619510650635
1685548196009924600,8.652924560546875,9.608352661132812,0.8073918223381042,1.394220232963562
1685548196029924600,8.672924560546875,9.95731258392334,0.792681872844696,1.4954279661178589
1685548196049924600,8.692924560546874,9.976810455322266,0.7549875378608704,1.5988383293151855
1685548196069924600,8.712924560546876,10.015883445739746,0.7601398825645447,1.507954478263855
1685548196089924600,8.732924560546875,9.69636344909668,0.7446829080581665,1.323859453201294
1685548196109924600,8.752924560546875,9.428308486938477,0.7786518335342407,1.2253332138061523
1685548196129924600,8.772924560546874,9.496591567993164,0.7809407114982605,1.2559024095535278
1685548196149924600,8.792924560546876,9.861505508422852,0.7708659172058105,1.4515278339385986
1685548196169924600,8.812924560546875,10.184378623962402,0.7279235124588013,1.6817926168441772
1685548196189926100,8.832926025390625,10.228124618530273,0.776755690574646,1.7053323984146118
1685548196209926100,8.852926025390625,9.756458282470703,0.7601973414421082,1.4325083494186401
1685548196229924600,8.872924560546876,9.342768669128418,0.8311901688575745,1.064375877380371
1685548196249924600,8.892924560546875,9.092766761779785,0.8831348419189453,0.9709445834159851
1685548196269924600,8.912924560546875,9.610259056091309,0.6759118437767029,1.168609857559204
1685548196289924600,8.932924560546875,10.041885375976562,0.6059341430664062,1.352091908454895
1685548196309924600,8.952924560546874,9.92918586730957,0.686724066734314,1.3010762929916382
1685548196329924600,8.972924560546875,9.742361068725586,0.7639418840408325,1.2453678846359253
1685548196349924600,8.992924560546875,9.777095794677734,0.8415427207946777,1.3332926034927368
1685548196369924600,9.012924560546875,9.95580005645752,0.7855950593948364,1.48406982421875
1685548196389926100,9.032926025390625,9.99580192565918,0.7590385675430298,1.5659898519515991
1685548196409924600,9.052924560546876,9.75566291809082,0.7478623986244202,1.4771937131881714
1685548196429924600,9.072924560546875,9.549446105957031,0.7661445140838623,1.2729395627975464
1685548196449926100,9.092926025390625,9.342586517333984,0.7959571480751038,1.080503225326538
1685548196469924600,9.112924560546874,9.3251953125,0.8280969262123108,1.0430196523666382
1685548196489924600,9.132924560546876,9.774433135986328,0.689951479434967,1.2252566814422607
1685548196509924600,9.152924560546875,10.372544288635254,0.5555122494697571,1.3816938400268555
1685548196529924600,9.172924560546875,10.37105941772461,0.5393274426460266,1.352647304534912
1685548196549924600,9.192924560546874,10.367094993591309,0.7059064507484436,1.3412318229675293
1685548196569924600,9.212924560546876,9.924798965454102,0.8036760091781616,1.2633435726165771
1685548196589924600,9.232924560546875,9.480798721313477,0.8258559703826904,1.074105978012085
1685548196609924600,9.252924560546875,9.417620658874512,0.6892044544219971,0.9589926600456238
1685548196629924600,9.272924560546874,9.475494384765625,0.6905739903450012,0.9891692399978638
1685548196649924600,9.292924560546876,9.599886894226074,0.694308876991272,1.07832932472229
1685548196669924600,9.312924560546875,9.716800689697266,0.7867538332939148,1.185091495513916
1685548196689924600,9.332924560546875,10.062647819519043,0.8534754514694214,1.3768959045410156
1685548196709924600,9.352924560546874,10.07199478149414,0.8706754446029663,1.4437706470489502
1685548196729924600,9.372924560546876,9.909984588623047,0.839225172996521,1.33053457736969
1685548196749924600,9.392924560546875,9.619251251220703,0.7790924310684204,1.0725160837173462
1685548196769926100,9.412926025390625,9.347509384155273,0.8302133679389954,0.931545615196228
1685548196789924600,9.432924560546875,9.360695838928223,0.8048731684684753,0.8673809766769409
1685548196809924600,9.452924560546874,9.542080879211426,0.7258932590484619,0.8636651635169983
1685548196829924600,9.472924560546875,9.967042922973633,0.6946440935134888,0.9679086804389954
1685548196849924600,9.492924560546875,9.980957984924316,0.6975937485694885,1.0708402395248413
1685548196869924600,9.512924560546875,9.939422607421875,0.6916753053665161,1.0663295984268188
1685548196889926100,9.532926025390625,9.905577659606934,0.7569316625595093,1.0769981145858765
1685548196909924600,9.552924560546876,9.730668067932129,0.7024300694465637,0.882100522518158
1685548196929924600,9.572924560546875,9.620468139648438,0.6632322072982788,0.7970967888832092
1685548196949924600,9.592924560546875,9.585531234741211,0.7113173007965088,0.8313338756561279
1685548196969924600,9.612924560546874,9.569902420043945,0.7621797323226929,0.8419641256332397
1685548196989924600,9.632924560546876,9.683396339416504,0.8657146096229553,0.9966295957565308
1685548197009924600,9.652924560546875,9.819061279296875,0.8266124725341797,1.1432217359542847
1685548197029924600,9.672924560546875,9.931072235107422,0.7980065941810608,1.2352452278137207
1685548197049924600,9.692924560546874,9.879156112670898,0.7192181944847107,1.0289990901947021
1685548197069924600,9.712924560546876,9.541861534118652,0.7293313145637512,0.8035898208618164
1685548197089924600,9.732924560546875,9.652587890625,0.715732216835022,0.8269380927085876
1685548197109924600,9.752924560546875,9.833388328552246,0.608136773109436,0.8761245608329773
1685548197129924600,9.772924560546874,9.879596710205078,0.5576095581054688,0.8176102638244629
1685548197149924600,9.792924560546876,9.808431625366211,0.5609518885612488,0.8028619885444641
1685548197169924600,9.812924560546875,9.94367504119873,0.6210271716117859,0.8706179261207581
1685548197189924600,9.832924560546875,9.838109970092773,0.6801639795303345,0.8443391919136047
1685548197209924600,9.852924560546874,9.683549880981445,0.7397987842559814,0.8889958262443542
1685548197229924600,9.872924560546876,9.822566032409668,0.73532634973526,1.028443694114685
1685548197249924600,9.892924560546875,9.810490608215332,0.7427292466163635,0.9716915488243103
1685548197269924600,9.912924560546875,9.595921516418457,0.7207696437835693,0.8273786902427673
1685548197289924600,9.932924560546875,9.747791290283203,0.681073784828186,0.8484954833984375
1685548197309924600,9.952924560546874,9.84459400177002,0.6669862866401672,0.9186072945594788
1685548197329924600,9.972924560546875,9.821781158447266,0.6319064497947693,0.9253780841827393
1685548197349924600,9.992924560546875,9.89659595489502,0.6211900115013123,0.8455266952514648
1685548197369924600,10.012924560546875,9.755069732666016,0.6806906461715698,0.7878934741020203
1685548197389924600,10.032924560546874,9.681404113769531,0.6925851106643677,0.6608571410179138
1685548197409924600,10.052924560546876,9.791757583618164,0.6448063850402832,0.7230584621429443
1685548197429924600,10.072924560546875,9.93010425567627,0.6428910493850708,0.8153501749038696
1685548197449924600,10.092924560546875,9.806391716003418,0.6244364976882935,0.7952101230621338
1685548197469924600,10.112924560546874,9.499032974243164,0.7309593558311462,0.6871167421340942
1685548197489924600,10.132924560546876,9.386246681213379,0.7659626007080078,0.5755948424339294
1685548197509924600,10.152924560546875,9.832191467285156,0.7029280662536621,0.7615188956260681
1685548197529924600,10.172924560546875,10.477025985717773,0.4901122450828552,1.2060551643371582
1685548197549924600,10.192924560546874,10.865137100219727,0.4232373833656311,1.4843666553497314
1685548197569924600,10.212924560546876,10.39101791381836,0.5723770260810852,1.3645800352096558
1685548197589924600,10.232924560546875,9.293179512023926,0.8659540414810181,0.8583979606628418
1685548197609926100,10.252926025390625,8.774499893188477,0.8204450607299805,0.5483583807945251
1685548197629924600,10.272924560546874,9.208051681518555,0.6458311080932617,0.8094029426574707
1685548197649924600,10.292924560546876,10.130691528320312,0.5587587952613831,1.344085693359375
1685548197669924600,10.312924560546875,10.435693740844727,0.6026971936225891,1.487852692604065
1685548197689924600,10.332924560546875,9.866141319274902,0.7958709597587585,1.1945534944534302
1685548197709924600,10.352924560546874,9.167829513549805,0.8296579122543335,0.8895512819290161
1685548197729924600,10.372924560546876,9.53827953338623,0.6153098344802856,0.9780409336090088
1685548197749924600,10.392924560546875,10.106385231018066,0.5119761228561401,1.283790111541748
1685548197769924600,10.412924560546875,10.248639106750488,0.43942221999168396,1.4566993713378906
1685548197789924600,10.432924560546875,10.274822235107422,0.539710521697998,1.2192710638046265
1685548197809924600,10.452924560546874,9.533979415893555,0.8464652299880981,0.9197948575019836
1685548197829924600,10.472924560546875,9.003012657165527,0.8250706195831299,0.8294089436531067
1685548197849924600,10.492924560546875,9.33320140838623,0.6193991303443909,0.7712202668190002
1685548197869924600,10.512924560546875,9.73664379119873,0.36430174112319946,0.8949334621429443
1685548197889924600,10.532924560546874,10.27493667602539,0.2898325026035309,1.240397572517395
1685548197909924600,10.552924560546876,10.639114379882812,0.5295782685279846,1.5388684272766113
1685548197929934000,10.57293408203125,10.27212142944336,0.7271573543548584,1.4109700918197632
1685548197949924600,10.592924560546875,9.782267570495605,0.8080717921257019,1.255854606628418
1685548197969924600,10.612924560546874,9.695511817932129,0.7930745482444763,1.2069265842437744
1685548197989924600,10.632924560546876,9.446102142333984,0.8848778009414673,1.1639076471328735
1685548198009924600,10.652924560546875,9.211068153381348,0.9278967976570129,1.200855016708374
1685548198029924600,10.672924560546875,9.535358428955078,0.8515313863754272,1.165593147277832
1685548198049924600,10.692924560546874,9.743002891540527,0.7467515468597412,1.1112830638885498
1685548198069926100,10.712926025390624,9.824874877929688,0.41149625182151794,1.006282925605774
1685548198089926100,10.732926025390626,10.097707748413086,0.338865727186203,0.9430090188980103
1685548198109924600,10.752924560546875,9.951480865478516,0.48780423402786255,0.8901450037956238
1685548198129926100,10.772926025390625,9.691346168518066,0.5544300675392151,0.8646515607833862
1685548198149926100,10.792926025390624,9.89228630065918,0.6503609418869019,0.983844518661499
1685548198169924600,10.812924560546875,9.713592529296875,0.6656454801559448,1.1336162090301514
1685548198189924600,10.832924560546875,9.462746620178223,0.8706562519073486,1.2565823793411255
1685548198209924600,10.852924560546874,9.218193054199219,1.0899747610092163,1.291260004043579
1685548198229924600,10.872924560546876,9.218452453613281,1.036018967628479,1.179661512374878
1685548198249924600,10.892924560546875,9.547577857971191,0.9016276001930237,1.1708316802978516
1685548198269924600,10.912924560546875,9.781942367553711,0.904395341873169,1.3100018501281738
1685548198289924600,10.932924560546875,10.16308879852295,0.8099009990692139,1.338234305381775
1685548198309924600,10.952924560546874,10.378242492675781,0.7191224098205566,1.2557013034820557
1685548198329924600,10.972924560546875,10.093216896057129,0.6292632222175598,1.0693845748901367
1685548198349924600,10.992924560546875,9.797466278076172,0.6166985034942627,0.9688855409622192
1685548198369924600,11.012924560546875,9.600088119506836,0.7349337339401245,0.8860940337181091
1685548198389924600,11.032924560546874,9.50534439086914,0.6773579716682434,0.7777994871139526
1685548198409924600,11.052924560546876,9.492340087890625,0.7002178430557251,0.7657327055931091
1685548198429924600,11.072924560546875,9.8120698928833,0.6543640494346619,0.8372906446456909
1685548198449926100,11.092926025390625,10.291102409362793,0.22946986556053162,0.20140981674194336
1685548198469924600,11.112924560546874,10.118691444396973,1.8266130685806274,2.2279865741729736
1685548198489924600,11.132924560546876,9.628081321716309,1.0002686977386475,1.4677892923355103
1685548198509924600,11.152924560546875,10.595060348510742,1.0663965940475464,1.758675217628479
1685548198529924600,11.172924560546875,10.182472229003906,1.0525964498519897,1.5535399913787842
1685548198549924600,11.192924560546874,9.516759872436523,1.0639641284942627,1.2272869348526
1685548198569924600,11.212924560546876,9.383049011230469,1.0418800115585327,1.0615410804748535
1685548198589924600,11.232924560546875,9.25493049621582,0.9080536365509033,0.7905749678611755
1685548198609924600,11.252924560546875,9.13892650604248,1.2780441045761108,1.330898404121399
1685548198629924600,11.272924560546874,9.606513977050781,1.006359577178955,1.2380033731460571
1685548198649924600,11.292924560546876,9.783177375793457,0.795171856880188,1.02747642993927
1685548198669924600,11.312924560546875,10.128498077392578,0.8173325657844543,1.171837329864502
1685548198689926100,11.332926025390625,10.995227813720703,0.7039048671722412,1.4544105529785156
1685548198709924600,11.352924560546874,10.862569808959961,0.6469037532806396,1.3979073762893677
1685548198729926100,11.372926025390624,9.792745590209961,0.8047965168952942,1.0235786437988281
1685548198749926100,11.392926025390626,8.818093299865723,0.9923869967460632,0.789425790309906
1685548198769924600,11.412924560546875,8.54497241973877,1.2187540531158447,0.9381535649299622
1685548198789924600,11.432924560546875,8.887392044067383,1.5187571048736572,1.4119757413864136
1685548198809924600,11.452924560546874,9.41946029663086,1.5426607131958008,1.8152645826339722
1685548198829924600,11.472924560546875,9.718831062316895,1.253584861755371,1.6667187213897705
1685548198849924600,11.492924560546875,9.920279502868652,0.9380673766136169,1.2664273977279663
1685548198869935600,11.512935546875,9.75730037689209,0.6919434070587158,0.7364181280136108
1685548198889924600,11.532924560546874,9.69886302947998,0.5494788885116577,0.49551355838775635
1685548198909924600,11.552924560546876,9.88571548461914,0.46361321210861206,0.4194449782371521
1685548198929924600,11.572924560546875,10.019878387451172,0.6253654956817627,0.7206164002418518
1685548198949926100,11.592926025390625,9.959094047546387,0.8844276666641235,0.9800999760627747
1685548198969926100,11.612926025390625,9.867578506469727,0.9721704125404358,1.1131601333618164
1685548198989926100,11.632926025390624,9.794238090515137,0.9620955586433411,1.1708794832229614
1685548199009924600,11.652924560546875,9.869195938110352,0.9511396884918213,1.269511103630066
1685548199029924600,11.672924560546875,9.54079818725586,1.0367180109024048,1.2141571044921875
1685548199049924600,11.692924560546874,9.225682258605957,1.150356411933899,1.0974829196929932
1685548199069924600,11.712924560546876,9.25471019744873,1.1875431537628174,1.0583233833312988
1685548199089924600,11.732924560546875,9.562451362609863,1.1926285028457642,1.179795503616333
1685548199109924600,11.752924560546875,10.252574920654297,1.2081141471862793,1.4760828018188477
1685548199129924600,11.772924560546874,10.75032901763916,1.1363264322280884,1.6533781290054321
1685548199149924600,11.792924560546876,11.016573905944824,1.1530954837799072,1.7775894403457642
1685548199169924600,11.812924560546875,10.93077564239502,1.063820481300354,1.5594488382339478
1685548199189924600,11.832924560546875,10.020912170410156,0.9437368512153625,1.0488901138305664
1685548199209924600,11.852924560546874,9.324448585510254,0.8943300843238831,0.8069800138473511
1685548199229926100,11.872926025390624,9.08816909790039,0.9709253907203674,0.804806113243103
1685548199249924600,11.892924560546875,9.211115837097168,1.0652761459350586,1.0681778192520142
1685548199269924600,11.912924560546875,9.661896705627441,1.0768448114395142,1.2417670488357544
1685548199289924600,11.932924560546875,10.03046989440918,1.1848808526992798,1.507351040840149
1685548199309924600,11.952924560546874,10.121353149414062,1.3592840433120728,1.7034841775894165
1685548199329924600,11.972924560546875,9.889690399169922,1.242676854133606,1.3943160772323608
1685548199349924600,11.992924560546875,9.523597717285156,1.2032396793365479,1.1148169040679932
1685548199369924600,12.012924560546875,9.27111530303955,1.2483559846878052,1.0324467420578003
1685548199389924600,12.032924560546874,9.407938003540039,1.3032214641571045,1.188098669052124
1685548199409924600,12.052924560546876,9.720707893371582,1.1837890148162842,1.3596287965774536
1685548199429924600,12.072924560546875,9.847427368164062,1.1420533657073975,1.555694818496704
1685548199449924600,12.092924560546875,9.82343864440918,1.0664540529251099,1.5107221603393555
1685548199469924600,12.112924560546874,9.259786605834961,1.0465151071548462,1.2078173160552979
1685548199489926100,12.132926025390624,8.809991836547852,1.1397356986999512,1.009539008140564
1685548199509924600,12.152924560546875,8.890647888183594,1.2478291988372803,1.0819971561431885
1685548199529924600,12.172924560546875,9.230978965759277,1.2621656656265259,1.2683618068695068
1685548199549924600,12.192924560546874,9.70089340209961,1.2334544658660889,1.411487340927124
1685548199569924600,12.212924560546876,10.167686462402344,1.2430120706558228,1.620309591293335
1685548199589924600,12.232924560546875,10.466540336608887,1.294439435005188,1.766202688217163
1685548199609924600,12.252924560546875,10.40457820892334,1.2634011507034302,1.715158224105835
1685548199629924600,12.272924560546874,10.15305233001709,1.1866717338562012,1.4406964778900146
1685548199649924600,12.292924560546876,9.601131439208984,1.0997143983840942,1.134526014328003
1685548199669924600,12.312924560546875,9.28403377532959,1.1993131637573242,1.0542914867401123
1685548199689924600,12.332924560546875,9.23923397064209,1.3385215997695923,0.9802340865135193
1685548199709924600,12.352924560546874,9.321968078613281,1.3912514448165894,1.1281670331954956
1685548199729924600,12.372924560546876,9.833637237548828,1.385677695274353,1.4021018743515015
1685548199749924600,12.392924560546875,10.52498722076416,1.1873228549957275,1.6055229902267456
1685548199769924600,12.412924560546875,10.780649185180664,1.113638997077942,1.6184133291244507
1685548199789924600,12.432924560546875,10.398429870605469,1.0713478326797485,1.5250777006149292
1685548199809924600,12.452924560546874,9.862655639648438,1.0194414854049683,1.3481462001800537
1685548199829924600,12.472924560546875,9.439571380615234,1.0551151037216187,1.1431738138198853
1685548199849924600,12.492924560546875,8.896441459655762,1.0990725755691528,1.009299635887146
1685548199869924600,12.512924560546875,8.778590202331543,1.2188210487365723,0.9654187560081482
1685548199889924600,12.532924560546874,9.02820873260498,1.2221345901489258,1.0879923105239868
1685548199909924600,12.552924560546876,9.58476448059082,1.2420352697372437,1.3477247953414917
1685548199929924600,12.572924560546875,10.041224479675293,1.1359528303146362,1.5044013261795044
1685548199949924600,12.592924560546875,10.34870719909668,1.039820909500122,1.5411858558654785
1685548199969924600,12.612924560546874,10.252470016479492,0.9855300188064575,1.4724435806274414
1685548199989924600,12.632924560546876,9.808049201965332,0.8717383742332458,1.257070779800415
1685548200009926100,12.652926025390625,9.268146514892578,0.8188456892967224,0.8838147521018982
1685548200029926100,12.672926025390625,8.828446388244629,0.9490232467651367,0.7187201976776123
1685548200049924600,12.692924560546874,8.59502124786377,1.0138773918151855,0.7391283512115479
1685548200069924600,12.712924560546876,8.939537048339844,1.0327627658843994,0.9952887892723083
1685548200089924600,12.732924560546875,9.30034351348877,0.9195936918258667,1.2093878984451294
1685548200109924600,12.752924560546875,9.417658805847168,0.8976820111274719,1.2295949459075928
1685548200129924600,12.772924560546874,9.456100463867188,0.9340259432792664,1.152281403541565
1685548200149924600,12.792924560546876,9.637160301208496,1.09456205368042,1.2262814044952393
1685548200169924600,12.812924560546875,10.1377592086792,1.0985171794891357,1.4182580709457397
1685548200189924600,12.832924560546875,10.782076835632324,0.9979798793792725,1.6094111204147339
1685548200209924600,12.852924560546874,11.068049430847168,0.939254879951477,1.6813328266143799
1685548200229924600,12.872924560546876,10.864246368408203,0.8373576402664185,1.4730181694030762
1685548200249924600,12.892924560546875,10.220847129821777,0.7906036972999573,1.001293420791626
1685548200269924600,12.912924560546875,9.600020408630371,0.8372140526771545,0.7644590735435486
1685548200289924600,12.932924560546875,9.285423278808594,0.944541335105896,0.7178104519844055
1685548200309924600,12.952924560546874,9.304298400878906,0.9811534285545349,0.8366490006446838
1685548200329924600,12.972924560546875,9.639880180358887,0.9954994916915894,1.0073363780975342
1685548200349924600,12.992924560546875,10.104249000549316,1.0271029472351074,1.2485474348068237
1685548200369924600,13.012924560546875,10.526567459106445,1.0309815406799316,1.4342896938323975
1685548200389924600,13.032924560546874,10.595788955688477,0.9008135795593262,1.3710156679153442
1685548200409926100,13.052926025390626,10.236303329467773,0.8268423676490784,1.1748729944229126
1685548200429926100,13.072926025390625,9.743864059448242,0.8266220688819885,0.9778398275375366
1685548200449924600,13.092924560546875,9.395853042602539,0.8303378820419312,0.8649675846099854
1685548200469924600,13.112924560546874,9.114840507507324,0.8135018348693848,0.8772068023681641
1685548200489926100,13.132926025390624,9.127845764160156,0.8499511480331421,1.025302529335022
1685548200509924600,13.152924560546875,9.028631210327148,0.9396858811378479,1.057854175567627
1685548200529924600,13.172924560546875,8.859332084655762,1.0080642700195312,1.0106021165847778
1685548200549924600,13.192924560546874,9.558046340942383,0.929706871509552,1.1655644178390503
1685548200569924600,13.212924560546876,10.327743530273438,0.8535041213035583,1.4928231239318848
1685548200589924600,13.232924560546875,10.535205841064453,0.965667724609375,1.5846933126449585
1685548200609926100,13.252926025390625,10.063950538635254,0.9690004587173462,1.2447932958602905
1685548200629924600,13.272924560546874,9.430809020996094,0.7980640530586243,0.7300878763198853
1685548200649924600,13.292924560546876,9.051097869873047,0.7108767628669739,0.45898762345314026
1685548200669924600,13.312924560546875,8.85362434387207,0.7259889841079712,0.39997532963752747
1685548200689924600,13.332924560546875,9.149288177490234,0.6581851840019226,0.46202346682548523
1685548200709924600,13.352924560546874,9.770584106445312,0.6701275110244751,0.6488765478134155
1685548200729924600,13.372924560546876,10.16012954711914,0.774074137210846,0.8723800778388977
1685548200749924600,13.392924560546875,10.383739471435547,0.9548459649085999,1.0753796100616455
1685548200769924600,13.412924560546875,10.591507911682129,0.930702805519104,1.0865461826324463
1685548200789924600,13.432924560546875,10.7454833984375,0.7644877433776855,0.9202545285224915
1685548200809924600,13.452924560546874,10.698308944702148,0.7673320770263672,0.8400965929031372
1685548200829924600,13.472924560546875,10.498047828674316,0.8396848440170288,0.9681769013404846
1685548200849924600,13.492924560546875,10.34947395324707,0.6558388471603394,0.8829911351203918
1685548200869924600,13.512924560546875,9.962042808532715,0.5348933935165405,0.729455828666687
1685548200889926100,13.532926025390625,9.485472679138184,0.5382069945335388,0.6573615670204163
1685548200909924600,13.552924560546876,9.267897605895996,0.6872603893280029,0.6518357396125793
1685548200929924600,13.572924560546875,9.09450912475586,0.8366777300834656,0.7556675672531128
1685548200949924600,13.592924560546875,9.228230476379395,0.9824941754341125,0.9590118527412415
1685548200969924600,13.612924560546874,9.683980941772461,0.9804351925849915,1.185943841934204
1685548200989926100,13.632926025390624,10.168950080871582,0.9295631647109985,1.374721884727478
1685548201009924600,13.652924560546875,10.32165241241455,0.8465801477432251,1.4557608366012573
1685548201029924600,13.672924560546875,10.306109428405762,0.7095839381217957,1.3109499216079712
1685548201049924600,13.692924560546874,9.889680862426758,0.6443562507629395,1.0650367736816406
1685548201069924600,13.712924560546876,9.394732475280762,0.5872402191162109,0.7606474757194519
1685548201089924600,13.732924560546875,9.127511024475098,0.6776739954948425,0.6261029243469238
1685548201109924600,13.752924560546875,8.97523021697998,0.7730110883712769,0.7181743383407593
1685548201129924600,13.772924560546874,9.08616828918457,0.8261049389839172,0.8505545258522034
1685548201149924600,13.792924560546876,9.381401062011719,0.802967369556427,0.9535818099975586
1685548201169924600,13.812924560546875,9.527745246887207,0.8551226854324341,0.9996845722198486
1685548201189924600,13.832924560546875,9.688615798950195,0.9450584650039673,1.0033620595932007
1685548201209924600,13.852924560546874,9.940303802490234,1.0642226934432983,1.1598470211029053
1685548201229924600,13.872924560546876,10.009400367736816,1.0711370706558228,1.2607579231262207
1685548201249924600,13.892924560546875,10.023775100708008,0.9972807765007019,1.2579327821731567
1685548201269924600,13.912924560546875,9.892200469970703,0.9584755301475525,1.1140124797821045
1685548201289926100,13.932926025390625,9.747675895690918,0.9920039772987366,0.9862961769104004
1685548201309924600,13.952924560546874,9.838483810424805,0.948544442653656,0.9330299496650696
1685548201329924600,13.972924560546875,10.01056957244873,0.9510056376457214,0.9820919632911682
1685548201349924600,13.992924560546875,9.984107971191406,0.9123249650001526,0.9273892045021057
1685548201369924600,14.012924560546875,9.909600257873535,0.813884973526001,0.7987344264984131
1685548201389924600,14.032924560546874,9.87859058380127,0.7498352527618408,0.7080228924751282
1685548201409924600,14.052924560546876,9.897026062011719,0.7421642541885376,0.7490978240966797
1685548201429926100,14.072926025390625,9.957292556762695,0.8246780037879944,0.8596716523170471
1685548201449924600,14.092924560546875,9.773361206054688,0.8503151535987854,0.8432665467262268
1685548201469924600,14.112924560546874,9.581480026245117,0.8245534896850586,0.7557345628738403
1685548201489924600,14.132924560546876,9.458724975585938,0.8235862255096436,0.7712681293487549
1685548201509924600,14.152924560546875,9.418214797973633,0.7852407097816467,0.640506386756897
1685548201529926100,14.172926025390625,9.401464462280273,0.7962731719017029,0.5969893932342529
1685548201549924600,14.192924560546874,9.554253578186035,0.6614604592323303,0.6099947094917297
1685548201569924600,14.212924560546876,9.882421493530273,0.6219465732574463,0.7459661960601807
1685548201589924600,14.232924560546875,9.941893577575684,0.7322043180465698,0.7309784889221191
1685548201609924600,14.252924560546875,9.659319877624512,0.7927489280700684,0.5984067916870117
1685548201629924600,14.272924560546874,9.891021728515625,0.7884872555732727,0.7870698571205139
1685548201649924600,14.292924560546876,10.184866905212402,0.6790339350700378,0.9584946632385254
1685548201669924600,14.312924560546875,10.023191452026367,0.6020938754081726,0.8664807677268982
1685548201689924600,14.332924560546875,9.523080825805664,0.7173219323158264,0.6886777281761169
1685548201709926100,14.352926025390625,9.26573371887207,0.756538987159729,0.4726633131504059
1685548201729924600,14.372924560546876,9.342031478881836,0.8445498943328857,0.47153323888778687
1685548201749924600,14.392924560546875,9.723465919494629,0.78217613697052,0.5324225425720215
1685548201769924600,14.412924560546875,10.301474571228027,0.7226466536521912,0.7097658514976501
1685548201789924600,14.432924560546875,10.576749801635742,0.6974979639053345,0.9438613057136536
1685548201809924600,14.452924560546874,10.388469696044922,0.635507345199585,0.7471537590026855
1685548201829924600,14.472924560546875,10.064620971679688,0.731505274772644,0.6270988583564758
1685548201849926100,14.492926025390625,9.583107948303223,0.7156556248664856,0.34573230147361755
1685548201869924600,14.512924560546875,9.499598503112793,0.6313605308532715,0.3337613046169281
1685548201889924600,14.532924560546874,9.943838119506836,0.6064417362213135,0.48732537031173706
1685548201909924600,14.552924560546876,9.990621566772461,0.68790203332901,0.595466673374176
1685548201929924600,14.572924560546875,9.992785453796387,0.7339760661125183,0.5996612906455994
1685548201949924600,14.592924560546875,9.916285514831543,0.7143052816390991,0.5505227446556091
1685548201969924600,14.612924560546874,9.541219711303711,0.7529860138893127,0.43818679451942444
1685548201989926100,14.632926025390624,9.233650207519531,0.776880145072937,0.4044381380081177
1685548202009924600,14.652924560546875,9.364402770996094,0.7890139818191528,0.3897473216056824
1685548202029924600,14.672924560546875,9.42696762084961,0.6391082406044006,0.4809759855270386
1685548202049924600,14.692924560546874,9.736854553222656,0.6720715761184692,0.5603868365287781
1685548202069924600,14.712924560546876,9.98021125793457,0.5782954692840576,0.6988099813461304
1685548202089924600,14.732924560546875,9.97305679321289,0.6166409850120544,0.7194288969039917
1685548202109924600,14.752924560546875,9.72602367401123,0.5895673632621765,0.6106650829315186
1685548202129924600,14.772924560546874,9.589428901672363,0.5300475358963013,0.4452066123485565
1685548202149924600,14.792924560546876,9.375856399536133,0.5940876603126526,0.38376182317733765
1685548202169924600,14.812924560546875,9.395125389099121,0.6928436756134033,0.560827374458313
1685548202189924600,14.832924560546875,9.520648002624512,0.7120260000228882,0.649690568447113
1685548202209926100,14.852926025390625,9.470705032348633,0.6686047315597534,0.6110098361968994
1685548202229924600,14.872924560546876,9.50245189666748,0.6291866302490234,0.6520177721977234
1685548202249926100,14.892926025390626,9.693346977233887,0.5659988522529602,0.5889257192611694
1685548202269924600,14.912924560546875,9.785064697265625,0.5528881549835205,0.574129581451416
1685548202289924600,14.932924560546875,9.946825981140137,0.5101373791694641,0.6171965003013611
1685548202309924600,14.952924560546874,10.307047843933105,0.4397190809249878,0.7625053524971008
1685548202329924600,14.972924560546875,10.53873062133789,0.47036486864089966,0.7915135025978088
1685548202349926100,14.992926025390625,10.221297264099121,0.5366650819778442,0.7066630125045776
1685548202369924600,15.012924560546875,9.899478912353516,0.6994037628173828,0.677520751953125
1685548202389924600,15.032924560546874,9.850061416625977,0.7951431274414062,0.8477101922035217
1685548202409924600,15.052924560546876,9.841078758239746,0.6969329714775085,0.8869559168815613
1685548202429924600,15.072924560546875,9.948492050170898,0.548703134059906,0.8729259371757507
1685548202449924600,15.092924560546875,9.937326431274414,0.5123592019081116,0.7905271053314209
1685548202469924600,15.112924560546874,9.760298728942871,0.6766780614852905,0.7062799334526062
1685548202489924600,15.132924560546876,9.709186553955078,0.8103032112121582,0.6351434588432312
1685548202509924600,15.152924560546875,9.849457740783691,0.7981981039047241,0.7026981711387634
1685548202529924600,15.172924560546875,10.327274322509766,0.6788328289985657,0.8789306282997131
1685548202549924600,15.192924560546874,10.535760879516602,0.5835914015769958,0.8822058439254761
1685548202569924600,15.212924560546876,10.151032447814941,0.491979718208313,0.6794265508651733
1685548202589924600,15.232924560546875,9.897486686706543,0.3916435241699219,0.5206717848777771
1685548202609924600,15.252924560546875,9.553726196289062,0.43398258090019226,0.5007233619689941
1685548202629924600,15.272924560546874,9.244779586791992,0.4974480867385864,0.4780645966529846
1685548202649926100,15.292926025390624,9.218509674072266,0.6465877294540405,0.6006860136985779
1685548202669924600,15.312924560546875,8.983667373657227,0.64980548620224,0.5239949822425842
1685548202689924600,15.332924560546875,9.307488441467285,0.6889746189117432,0.6412726044654846
1685548202709924600,15.352924560546874,9.638433456420898,0.6682887673377991,0.7770046591758728
1685548202729924600,15.372924560546876,9.825152397155762,0.6740922927856445,0.7870794534683228
1685548202749924600,15.392924560546875,10.025461196899414,0.5900557637214661,0.7484849095344543
1685548202769924600,15.412924560546875,10.170865058898926,0.5540661811828613,0.7377876043319702
1685548202789924600,15.432924560546875,10.157544136047363,0.5539608001708984,0.6757203340530396
1685548202809926100,15.452926025390624,10.032815933227539,0.5526392459869385,0.6645537614822388
1685548202829926100,15.472926025390626,9.796298027038574,0.5779123902320862,0.5956295132637024
1685548202849924600,15.492924560546875,9.38209056854248,0.647219717502594,0.3925724923610687
1685548202869924600,15.512924560546875,9.202459335327148,0.7298197150230408,0.3012097179889679
1685548202889924600,15.532924560546874,9.57578182220459,0.7159045934677124,0.477806031703949
1685548202909924600,15.552924560546876,10.021486282348633,0.7319362163543701,0.6551110148429871
1685548202929924600,15.572924560546875,10.203914642333984,0.8238255977630615,0.7380653619766235
1685548202949924600,15.592924560546875,10.359384536743164,0.8483710289001465,0.7006487250328064
1685548202969924600,15.612924560546874,10.475178718566895,0.7747828364372253,0.6240726113319397
1685548202989926100,15.632926025390624,10.482102394104004,0.684109628200531,0.6467217206954956
1685548203009924600,15.652924560546875,10.285069465637207,0.5815037488937378,0.4946325123310089
1685548203029924600,15.672924560546875,9.70427417755127,0.7150043845176697,0.26602452993392944
1685548203049924600,15.692924560546874,9.17310619354248,0.8268997669219971,0.2011033594608307
1685548203069924600,15.712924560546876,9.478682518005371,0.6736421585083008,0.30245471000671387
1685548203089926100,15.732926025390626,9.641411781311035,0.6806715726852417,0.4785242974758148
1685548203109924600,15.752924560546875,9.433259963989258,0.7101393938064575,0.3963361382484436
1685548203129924600,15.772924560546874,9.348265647888184,0.8053232431411743,0.37017229199409485
1685548203149924600,15.792924560546876,9.632802963256836,0.9073833227157593,0.7067204713821411
1685548203169924600,15.812924560546875,9.78233528137207,0.8795530796051025,0.836754322052002
1685548203189924600,15.832924560546875,9.640473365783691,0.6887064576148987,0.6915603876113892
1685548203209926100,15.852926025390625,9.562824249267578,0.608462393283844,0.550541877746582
1685548203229926100,15.872926025390624,9.278450965881348,0.6823666095733643,0.454850435256958
1685548203249926100,15.892926025390626,9.170625686645508,0.7544512152671814,0.3911072015762329
1685548203269924600,15.912924560546875,9.368885040283203,0.7187201976776123,0.35517504811286926
1685548203289924600,15.932924560546875,9.567814826965332,0.6323086619377136,0.5588833093643188
1685548203309924600,15.952924560546874,9.905731201171875,0.5545545816421509,0.6600239276885986
1685548203329924600,15.972924560546875,9.635321617126465,0.667656660079956,0.5990197062492371
1685548203349924600,15.992924560546875,9.269525527954102,0.7611837983131409,0.45517605543136597
1685548203369924600,16.012924560546875,9.393898963928223,0.8340153694152832,0.5417695045471191
1685548203389926100,16.032926025390626,9.662280082702637,0.7466365694999695,0.6151757836341858
1685548203409924600,16.052924560546874,9.95731258392334,0.6411768198013306,0.6918572187423706
1685548203429924600,16.072924560546873,10.069658279418945,0.7289769053459167,0.745707631111145
1685548203449924600,16.092924560546876,9.96896743774414,0.7576786279678345,0.5861101746559143
1685548203469924600,16.112924560546876,9.943090438842773,0.7318978905677795,0.5737465023994446
1685548203489926100,16.132926025390624,10.043187141418457,0.6916369795799255,0.5819729566574097
1685548203509926100,16.152926025390624,10.074666976928711,0.6474112868309021,0.6026397347450256
1685548203529924600,16.172924560546875,10.01154613494873,0.6194086670875549,0.5743498802185059
1685548203549924600,16.192924560546874,9.982269287109375,0.664525032043457,0.5621585845947266
1685548203569926100,16.212926025390626,9.83641529083252,0.7173219323158264,0.5712757110595703
1685548203589924600,16.232924560546873,9.881780624389648,0.643934965133667,0.6039038896560669
1685548203609924600,16.252924560546877,10.0015287399292,0.6437816619873047,0.6709606051445007
1685548203629924600,16.272924560546876,9.902437210083008,0.7017788290977478,0.6145628690719604
1685548203649926100,16.292926025390624,9.919417381286621,0.7010222673416138,0.5723674297332764
1685548203669924600,16.312924560546875,10.115933418273926,0.6481965780258179,0.6432358026504517
1685548203689924600,16.332924560546875,10.14880084991455,0.6752797961235046,0.7984949946403503
1685548203709924600,16.352924560546874,9.974234580993652,0.710081934928894,0.7905654311180115
1685548203729924600,16.372924560546874,9.599187850952148,0.6914550065994263,0.5609901547431946
1685548203749924600,16.392924560546874,9.451360702514648,0.6422685384750366,0.5082794427871704
1685548203769926100,16.412926025390625,9.498162269592285,0.5897589325904846,0.5530414581298828
1685548203789926100,16.432926025390625,9.532360076904297,0.5729803442955017,0.5370577573776245
1685548203809926100,16.452926025390624,9.58063793182373,0.637346088886261,0.5270116329193115
1685548203829924600,16.472924560546875,9.565793991088867,0.6311019659042358,0.5089881420135498
1685548203849926100,16.492926025390624,9.829740524291992,0.6230670809745789,0.6510888338088989
1685548203869924600,16.512924560546875,10.049623489379883,0.6401041746139526,0.6931118369102478
1685548203889926100,16.532926025390626,9.94046688079834,0.692326545715332,0.5677035450935364
1685548203909924600,16.552924560546874,10.06491756439209,0.7767269015312195,0.6526593565940857
1685548203929926100,16.572926025390625,10.128296852111816,0.7369161248207092,0.7017117738723755
1685548203949926100,16.592926025390625,9.98166561126709,0.62697434425354,0.6069684624671936
1685548203969924600,16.612924560546876,9.646469116210938,0.5785349011421204,0.4644751250743866
1685548203989926100,16.632926025390624,9.459280014038086,0.6194948554039001,0.3441329598426819
1685548204009924600,16.652924560546875,9.293410301208496,0.6548237204551697,0.28934404253959656
1685548204029943300,16.672943359375,9.397394180297852,0.6560304164886475,0.3281109929084778
1685548204049926100,16.692926025390626,9.741576194763184,0.7204536199569702,0.5467207431793213
1685548204069924600,16.712924560546874,10.029732704162598,0.7611454725265503,0.6775974035263062
1685548204089926100,16.732926025390626,10.06246566772461,0.7375290393829346,0.647430419921875
1685548204109924600,16.752924560546877,9.93774700164795,0.7589044570922852,0.5340889096260071
1685548204129924600,16.772924560546876,9.865107536315918,0.7963497638702393,0.5603677034378052
1685548204149924600,16.792924560546876,9.80489730834961,0.7617775201797485,0.6791583895683289
1685548204169924600,16.812924560546875,9.58161449432373,0.7431027293205261,0.5651082396507263
1685548204189924600,16.832924560546875,9.141923904418945,0.7375769019126892,0.38422149419784546
1685548204209924600,16.852924560546874,9.145323753356934,0.7434187531471252,0.35698503255844116
1685548204229924600,16.872924560546874,9.307745933532715,0.7053126692771912,0.4135265052318573
1685548204249926100,16.892926025390626,9.58102035522461,0.6508206129074097,0.49251601099967957
1685548204269924600,16.912924560546877,9.891242027282715,0.6501790285110474,0.6387059688568115
1685548204289924600,16.932924560546876,9.973640441894531,0.8108012080192566,0.6533393263816833
1685548204309924600,16.952924560546876,10.032509803771973,0.9179081916809082,0.7041060328483582
1685548204329924600,16.972924560546875,10.342577934265137,0.9105628132820129,0.8606389164924622
1685548204349924600,16.992924560546875,10.400067329406738,0.8076121211051941,0.8732706904411316
1685548204369924600,17.012924560546875,10.121793746948242,0.6796563863754272,0.7005817294120789
1685548204389924600,17.032924560546874,9.350391387939453,0.6561549305915833,0.2968331277370453
1685548204409924600,17.052924560546874,8.811342239379883,0.7015394568443298,0.006924031302332878
1685548204429924600,17.072924560546873,9.041769981384277,0.7505056262016296,0.1173158809542656
1685548204449924600,17.092924560546876,9.695348739624023,0.7847139835357666,0.41555678844451904
1685548204469926100,17.112926025390625,10.391908645629883,0.8218528628349304,0.7958230376243591
1685548204489926100,17.132926025390624,10.782048225402832,0.8064820766448975,0.8669117093086243
1685548204509924600,17.152924560546875,10.940084457397461,0.7456884980201721,0.8143254518508911
1685548204529926100,17.172926025390623,10.849544525146484,0.6133944988250732,0.7923562526702881
1685548204549924600,17.192924560546874,10.288458824157715,0.5107119679450989,0.5264849066734314
1685548204569924600,17.212924560546874,9.365935325622559,0.5717832446098328,0.22342689335346222
1685548204589926100,17.232926025390626,8.806927680969238,0.6932650208473206,0.2283397912979126
1685548204609926100,17.252926025390625,8.830716133117676,0.7116717100143433,0.2635345757007599
1685548204629924600,17.272924560546876,8.913028717041016,0.7478336691856384,0.23830926418304443
1685548204649924600,17.292924560546876,9.309948921203613,0.853734016418457,0.3978205621242523
1685548204669926100,17.312926025390624,10.1456880569458,0.9398965239524841,0.8683865070343018
1685548204689924600,17.332924560546875,10.814848899841309,0.8592885732650757,1.1622413396835327
1685548204709924600,17.352924560546874,10.729825019836426,0.7046135663986206,1.1519749164581299
1685548204729941800,17.372941650390626,10.371078491210938,0.6747722029685974,0.9631778001785278
1685548204749924600,17.392924560546874,9.579498291015625,0.8019426465034485,0.6790722012519836
1685548204769924600,17.412924560546877,8.896843910217285,0.9722182750701904,0.46436020731925964
1685548204789924600,17.432924560546876,8.744361877441406,0.8936309814453125,0.3493331968784332
1685548204809924600,17.452924560546876,8.863689422607422,0.7016255855560303,0.2705352306365967
1685548204829924600,17.472924560546875,9.369564056396484,0.7469621896743774,0.46478158235549927
1685548204849924600,17.492924560546875,9.842812538146973,0.5940014719963074,0.5249431133270264
1685548204869924600,17.512924560546875,9.984156608581543,0.7201184034347534,0.664103627204895
1685548204889924600,17.532924560546874,10.08092975616455,0.978127121925354,0.7307390570640564
1685548204909924600,17.552924560546874,10.383365631103516,0.9600557088851929,0.5467782020568848
1685548204929924600,17.572924560546873,10.267064094543457,0.8163270354270935,0.4316937327384949
1685548204949924600,17.592924560546876,10.258484840393066,0.6016916036605835,0.3651253283023834
1685548204969924600,17.612924560546876,10.003291130065918,0.5134029984474182,0.33797508478164673
1685548204989924600,17.632924560546876,9.62675952911377,0.47136083245277405,0.15902286767959595
1685548205009924600,17.652924560546875,9.208128929138184,0.5263221263885498,0.05559336394071579
1685548205029924600,17.672924560546875,9.136178016662598,0.5541619062423706,-0.003725377842783928
1685548205049924600,17.692924560546874,9.393735885620117,0.5915593504905701,0.0592421256005764
1685548205069924600,17.712924560546874,9.776904106140137,0.6757012009620667,0.2574533224105835
1685548205089924600,17.732924560546873,10.119275093078613,0.720367431640625,0.5672534108161926
1685548205109924600,17.752924560546877,10.307621955871582,0.7762959599494934,0.7458704113960266
1685548205129924600,17.772924560546876,10.189013481140137,0.7904601097106934,0.6496523022651672
1685548205149924600,17.792924560546876,9.926274299621582,0.8167388439178467,0.4923532009124756
1685548205169924600,17.812924560546875,9.861343383789062,0.6983695030212402,0.442889004945755
1685548205189924600,17.832924560546875,9.768420219421387,0.648934006690979,0.43035295605659485
1685548205209924600,17.852924560546874,9.46768856048584,0.6564230918884277,0.3715417981147766
1685548205229924600,17.872924560546874,9.324438095092773,0.6353157758712769,0.41645702719688416
1685548205249924600,17.892924560546874,9.2429780960083,0.6124750971794128,0.3813963234424591
1685548205269924600,17.912924560546877,9.047794342041016,0.5969989895820618,0.1998966783285141
1685548205289924600,17.932924560546876,9.027385711669922,0.5277586579322815,-0.005056553985923529
1685548205309924600,17.952924560546876,9.364623069763184,0.48000869154930115,-0.021710621193051338
1685548205329924600,17.972924560546875,9.68753433227539,0.4791276454925537,0.03971501812338829
1685548205349924600,17.992924560546875,9.66468334197998,0.5439913272857666,0.16517119109630585
1685548205369924600,18.012924560546875,9.860587120056152,0.6258730292320251,0.35029086470603943
1685548205389924600,18.032924560546874,9.856698036193848,0.643963634967804,0.405874639749527
1685548205409924600,18.052924560546874,9.64840316772461,0.7291780114173889,0.47605350613594055
1685548205429941800,18.072941650390625,9.524412155151367,0.874850869178772,0.5730856657028198
1685548205449924600,18.092924560546876,9.701525688171387,0.8077079057693481,0.5093424916267395
1685548205469924600,18.112924560546876,10.00171947479248,0.6803555488586426,0.5826146006584167
1685548205489924600,18.132924560546876,10.157190322875977,0.7033206820487976,0.649594783782959
1685548205509924600,18.152924560546875,10.041894912719727,0.7481401562690735,0.522941529750824
1685548205529924600,18.172924560546875,10.084511756896973,0.73140949010849,0.32114866375923157
1685548205549924600,18.192924560546874,10.301541328430176,0.6191980242729187,0.21297860145568848
1685548205569924600,18.212924560546874,10.668705940246582,0.650226891040802,0.5003498792648315
1685548205589924600,18.232924560546873,10.737467765808105,0.5836585164070129,0.5347880125045776
1685548205609924600,18.252924560546877,10.36827278137207,0.45464932918548584,0.3094649314880371
1685548205629924600,18.272924560546876,10.183248519897461,0.32068896293640137,0.3246345818042755
1685548205649924600,18.292924560546876,9.957609176635742,0.3468240797519684,0.43639594316482544
1685548205669924600,18.312924560546875,9.435214042663574,0.4111323356628418,0.3288004994392395
1685548205689924600,18.332924560546875,8.971399307250977,0.5482913255691528,0.23100215196609497
1685548205709924600,18.352924560546874,8.930075645446777,0.6668330430984497,0.2446969896554947
1685548205729924600,18.372924560546874,9.359289169311523,0.5937907695770264,0.3292123079299927
1685548205749924600,18.392924560546874,10.13719367980957,0.6021225452423096,0.5927756428718567
1685548205769924600,18.412924560546877,10.510411262512207,0.5695135593414307,0.9975585341453552
1685548205789924600,18.432924560546876,10.388239860534668,0.5534244775772095,0.9319190382957458
1685548205809924600,18.452924560546876,10.124561309814453,0.5727983713150024,0.9346388578414917
1685548205829924600,18.472924560546875,9.652673721313477,0.5791860818862915,0.7574295997619629
1685548205849984000,18.49298388671875,9.016142845153809,0.4884650409221649,0.550628125667572
1685548205869924600,18.512924560546875,8.919598579406738,0.485812246799469,0.5715534090995789
1685548205889924600,18.532924560546874,8.938915252685547,0.5579447746276855,0.5721088647842407
1685548205909924600,18.552924560546874,8.787659645080566,0.6698018908500671,0.5087103843688965
1685548205929924600,18.572924560546873,9.040285110473633,0.7488487958908081,0.6058000326156616
1685548205949924600,18.592924560546876,9.864484786987305,0.605426549911499,0.6423739194869995
1685548205969924600,18.612924560546876,10.352106094360352,0.5081453323364258,0.7581862211227417
1685548205989924600,18.632924560546876,10.535616874694824,0.45796290040016174,0.9393028020858765
1685548206009924600,18.652924560546875,10.728667259216309,0.42118796706199646,0.9400976300239563
1685548206029924600,18.672924560546875,10.097478866577148,0.31068119406700134,0.50810706615448
1685548206049924600,18.692924560546874,9.321345329284668,0.35859397053718567,0.17683574557304382
1685548206069924600,18.712924560546874,9.239119529724121,0.40872853994369507,0.12789826095104218
1685548206089924600,18.732924560546873,9.44137191772461,0.6048710942268372,0.2631227672100067
1685548206109924600,18.752924560546877,9.85526180267334,0.5522274374961853,0.45961010456085205
1685548206129941800,18.772941650390624,10.557184219360352,0.6327587962150574,0.5505322813987732
1685548206149924600,18.792924560546876,10.637323379516602,0.5483296513557434,0.5788125991821289
1685548206169924600,18.812924560546875,10.879242897033691,0.5406681895256042,0.7656177878379822
1685548206189924600,18.832924560546875,10.789460182189941,0.42112091183662415,0.8704455494880676
1685548206209924600,18.852924560546874,10.330089569091797,0.28969839215278625,0.5616797208786011
1685548206229924600,18.872924560546874,9.355477333068848,0.36173513531684875,0.24318385124206543
1685548206249924600,18.892924560546874,8.86424446105957,0.46733859181404114,0.027427975088357925
1685548206269924600,18.912924560546877,8.84108829498291,0.5830742716789246,0.009710881859064102
1685548206289924600,18.932924560546876,9.005827903747559,0.6181541681289673,0.1124412938952446
1685548206309924600,18.952924560546876,10.103405952453613,0.7147649526596069,0.6798096299171448
1685548206329924600,18.972924560546875,10.581414222717285,0.739118754863739,1.2316155433654785
1685548206349924600,18.992924560546875,9.822844505310059,0.6220614910125732,0.7255388498306274
1685548206369924600,19.012924560546875,9.523348808288574,0.457225501537323,0.3269713521003723
1685548206389924600,19.032924560546874,9.416625022888184,0.3177776038646698,0.2882044315338135
1685548206409924600,19.052924560546874,9.343487739562988,0.19590315222740173,0.2175467312335968
1685548206429924600,19.072924560546873,9.12993335723877,0.29565519094467163,0.2722015678882599
1685548206449924600,19.092924560546876,9.290680885314941,0.506268322467804,0.38136762380599976
1685548206469924600,19.112924560546876,9.130987167358398,0.7622180581092834,0.6151182651519775
1685548206489924600,19.132924560546876,9.252345085144043,0.7473835945129395,0.4933108687400818
1685548206509924600,19.152924560546875,9.876551628112793,0.5436561703681946,0.24153664708137512
1685548206529924600,19.172924560546875,9.821264266967773,0.5915880799293518,0.3159292936325073
1685548206549924600,19.192924560546874,9.902571678161621,0.34279224276542664,0.33808043599128723
1685548206569924600,19.212924560546874,10.076859474182129,0.24375846982002258,0.3827466666698456
1685548206589924600,19.232924560546873,9.984539031982422,0.25866955518722534,0.3186299502849579
1685548206609924600,19.252924560546877,9.931196212768555,0.1271704137325287,0.34573230147361755
1685548206629924600,19.272924560546876,9.825152397155762,0.7647655010223389,0.5529552698135376
1685548206649924600,19.292924560546876,9.754744529724121,1.1423406600952148,0.9281362295150757
1685548206669924600,19.312924560546875,9.872883796691895,0.6820697784423828,0.42250001430511475
1685548206689924600,19.332924560546875,9.844392776489258,0.6542204022407532,0.5026482939720154
1685548206709924600,19.352924560546874,10.188095092773438,0.795085608959198,0.38025668263435364
1685548206729924600,19.372924560546874,10.153790473937988,0.42193496227264404,0.4807461202144623
1685548206749924600,19.392924560546874,10.343343734741211,0.1716642677783966,0.5098787546157837
1685548206769924600,19.412924560546877,10.28061580657959,-0.07043741643428802,0.5665159821510315
1685548206789924600,19.432924560546876,10.078287124633789,-0.13895946741104126,0.42131248116493225
1685548206809924600,19.452924560546876,10.015779495239258,0.16633954644203186,0.5319724678993225
1685548206829941800,19.472941650390624,9.705087661743164,0.28785964846611023,0.6217454075813293
1685548206849924600,19.492924560546875,9.408628463745117,0.033308133482933044,1.1983649730682373
1685548206869924600,19.512924560546875,9.589189529418945,0.6325384974479675,0.6902579069137573
1685548206889924600,19.532924560546874,9.670084953308105,0.5973629355430603,0.36736631393432617
1685548206909924600,19.552924560546874,10.013174057006836,0.651309072971344,0.0712035596370697
1685548206929924600,19.572924560546873,9.827220916748047,1.0160895586013794,-0.07877881824970245
1685548206949924600,19.592924560546876,9.959878921508789,0.5709884166717529,0.24279120564460754
1685548206969924600,19.612924560546876,9.790225982666016,-0.016127342358231544,0.4925447404384613
1685548206989924600,19.632924560546876,9.60511589050293,0.7348092198371887,0.564504861831665
1685548207009924600,19.652924560546875,9.459175109863281,0.4027334451675415,0.42024946212768555
1685548207029924600,19.672924560546875,9.260370254516602,0.34633561968803406,0.8384111523628235
1685548207049924600,19.692924560546874,9.277541160583496,0.23309947550296783,0.6416172981262207
1685548207069924600,19.712924560546874,9.457298278808594,0.6012511253356934,0.503328263759613
1685548207089924600,19.732924560546873,9.580187797546387,0.8261911273002625,0.47449246048927307
1685548207109924600,19.752924560546877,9.596879959106445,1.282410979270935,0.031718384474515915
1685548207129924600,19.772924560546876,9.612968444824219,0.9542617797851562,0.09047209471464157
1685548207149924600,19.792924560546876,9.578195571899414,-0.5310913920402527,0.8642014861106873
1685548207169924600,19.812924560546875,9.471711158752441,0.5101085901260376,0.824294924736023
1685548207189924600,19.832924560546875,9.653440475463867,0.4585375189781189,0.8090390563011169
1685548207209924600,19.852924560546874,9.43644905090332,1.075207233428955,0.4515177011489868
1685548207229924600,19.872924560546874,9.43934154510498,1.9804836511611938,0.15880261361598969
1685548207249924600,19.892924560546874,9.368252754211426,1.898305058479309,-0.11749783903360367
1685548207269924600,19.912924560546877,9.61449146270752,1.7082246541976929,-0.18522502481937408
1685548207289924600,19.932924560546876,9.876062393188477,1.3109594583511353,-0.11320743709802628
1685548207309924600,19.952924560546876,10.172197341918945,0.5172145962715149,0.30980968475341797
1685548207329924600,19.972924560546875,10.609674453735352,0.081766776740551,0.46419739723205566
1685548207349924600,19.992924560546875,10.926695823669434,0.1616181880235672,0.5655679106712341
1685548207369924600,20.012924560546875,10.563735008239746,0.23896047472953796,0.6054744124412537
1685548207389924600,20.032924560546874,10.184943199157715,0.45962926745414734,0.48726794123649597
1685548207409948200,20.0529482421875,9.805098533630371,0.7742369174957275,0.48411715030670166
1685548207429924600,20.072924560546873,9.833953857421875,0.5321735739707947,0.5009052753448486
1685548207449924600,20.092924560546876,9.891108512878418,0.2975896894931793,0.5584235787391663
1685548207469924600,20.112924560546876,9.962579727172852,0.27098533511161804,0.5684122443199158
1685548207489924600,20.132924560546876,10.550165176391602,0.027973853051662445,0.4289643168449402
1685548207509924600,20.152924560546875,10.661102294921875,-0.1904156506061554,0.43494024872779846
1685548207529941800,20.172941650390626,10.255093574523926,-0.27934589982032776,0.5923063158988953
1685548207549924600,20.192924560546874,9.668542861938477,0.1368429809808731,0.6810546517372131
1685548207569924600,20.212924560546874,9.19501781463623,0.25498247146606445,0.29166164994239807
1685548207589924600,20.232924560546873,8.760871887207031,0.360289067029953,0.11214441061019897
1685548207609924600,20.252924560546877,8.778512954711914,0.46094128489494324,0.021892579272389412
1685548207629924600,20.272924560546876,8.836098670959473,0.636292576789856,0.2900623083114624
1685548207649924600,20.292924560546876,9.088590621948242,0.7014915347099304,0.3959818184375763
1685548207669924600,20.312924560546875,9.367669105529785,0.5160557627677917,0.4083837568759918
1685548207689926100,20.332926025390623,9.701841354370117,0.33956485986709595,0.625346302986145
1685548207709926100,20.352926025390627,10.190958023071289,0.10914686322212219,0.4393455684185028
1685548207729926100,20.372926025390626,10.620209693908691,-0.23831883072853088,0.9471845030784607
1685548207749924600,20.392924560546874,10.217303276062012,-0.28763940930366516,-0.2221531867980957
1685548207769924600,20.412924560546877,9.67602252960205,-0.08819281309843063,-0.14512692391872406
1685548207789924600,20.432924560546876,9.197306632995605,0.5002732276916504,-0.31791168451309204
1685548207809924600,20.452924560546876,8.873705863952637,1.0441592931747437,0.07151001691818237
1685548207829924600,20.472924560546875,9.839460372924805,1.1026256084442139,0.487976610660553
1685548207849924600,20.492924560546875,11.187711715698242,0.8382100462913513,0.7080995440483093
1685548207869924600,20.512924560546875,10.616925239562988,0.6935523748397827,1.1043111085891724
1685548207889926100,20.532926025390626,11.307001113891602,0.47002965211868286,1.121061086654663
1685548207909924600,20.552924560546874,10.722949028015137,-0.13383588194847107,1.1740015745162964
1685548207929924600,20.572924560546873,10.343162536621094,0.14505988359451294,-0.06781336665153503
1685548207949924600,20.592924560546876,9.260053634643555,0.05159026011824608,-0.3007117211818695
1685548207969924600,20.612924560546876,8.936147689819336,0.21562181413173676,-0.4862048923969269
1685548207989924600,20.632924560546876,8.873016357421875,0.4295580983161926,-0.1914978325366974
1685548208009924600,20.652924560546875,9.23824691772461,0.7043837308883667,0.30384334921836853
1685548208029924600,20.672924560546875,9.960807800292969,0.7480060458183289,0.6133849024772644
1685548208049924600,20.692924560546874,10.48803997039795,0.7478815913200378,0.8200811147689819
1685548208069924600,20.712924560546874,10.413763046264648,0.673067569732666,0.8259516954421997
1685548208089924600,20.732924560546873,10.058271408081055,0.544786274433136,0.49487191438674927
1685548208109924600,20.752924560546877,9.303829193115234,0.3138798475265503,0.151572123169899
1685548208129924600,20.772924560546876,9.126811981201172,0.3111887574195862,0.08901641517877579
1685548208149924600,20.792924560546876,8.856276512145996,0.37366783618927,-0.052193596959114075
1685548208169924600,20.812924560546875,8.551896095275879,0.39042723178863525,-0.1530948281288147
1685548208189924600,20.832924560546875,8.384618759155273,0.4802481532096863,-0.14330734312534332
1685548208209924600,20.852924560546874,8.784584999084473,0.5420759916305542,0.012516886927187443
1685548208229941800,20.872941650390626,9.664817810058594,0.4837149381637573,0.09323979169130325
1685548208249924600,20.892924560546874,10.334389686584473,0.5675503015518188,0.38048654794692993
1685548208269924600,20.912924560546877,10.700041770935059,0.49638503789901733,0.518162727355957
1685548208289924600,20.932924560546876,10.607759475708008,0.4431954622268677,0.4263881742954254
1685548208309924600,20.952924560546876,9.862932205200195,0.5823273062705994,0.243930846452713
1685548208329924600,20.972924560546875,9.261548042297363,0.6066715717315674,0.10872548818588257
1685548208349924600,20.992924560546875,9.201118469238281,0.5964818000793457,0.025675419718027115
1685548208369924600,21.012924560546875,9.734288215637207,0.4206325113773346,0.09507853537797928
1685548208389924600,21.032924560546874,10.074033737182617,0.3154695928096771,0.20779754221439362
1685548208409924600,21.052924560546874,10.205533981323242,0.19309715926647186,0.03111504577100277
1685548208429926100,21.072926025390625,10.395748138427734,0.35776078701019287,0.10150457918643951
1685548208449924600,21.092924560546876,10.65668773651123,0.49382802844047546,0.3414514660835266
1685548208469924600,21.112924560546876,10.76091194152832,0.5942025780677795,0.7102159857749939
1685548208489924600,21.132924560546876,10.561063766479492,0.5248568654060364,0.7913698554039001
1685548208509924600,21.152924560546875,10.207947731018066,0.41795098781585693,0.4702882468700409
1685548208529924600,21.172924560546875,9.589524269104004,0.3891439735889435,0.17319655418395996
1685548208549924600,21.192924560546874,9.147689819335938,0.2936440408229828,-0.04725196585059166
1685548208569924600,21.212924560546874,9.121458053588867,0.3464314043521881,-0.13155660033226013
1685548208589924600,21.232924560546873,9.403696060180664,0.2795853018760681,0.003265690989792347
1685548208609924600,21.252924560546877,9.672220230102539,0.28040891885757446,0.14249330759048462
1685548208629924600,21.272924560546876,9.799189567565918,0.500407338142395,0.40146932005882263
1685548208649924600,21.292924560546876,9.96047306060791,0.6409661173820496,0.5518156290054321
1685548208669924600,21.312924560546875,10.025049209594727,0.6555132269859314,0.5292909741401672
1685548208689926100,21.332926025390623,9.950675964355469,0.5462802052497864,0.4772505760192871
1685548208709924600,21.352924560546874,9.76193618774414,0.39153817296028137,0.36642780900001526
1685548208729926100,21.372926025390626,9.438230514526367,0.3216562271118164,0.1855793595314026
1685548208749924600,21.392924560546874,9.431709289550781,0.4809185266494751,0.20833386480808258
1685548208769924600,21.412924560546877,9.028831481933594,0.42424294352531433,0.15895584225654602
1685548208789924600,21.432924560546876,9.110607147216797,0.6005902886390686,0.1641368865966797
1685548208809924600,21.452924560546876,9.279370307922363,0.659229040145874,0.05806417763233185
1685548208829924600,21.472924560546875,9.847504615783691,0.6062406301498413,0.2435094565153122
1685548208849924600,21.492924560546875,10.301876068115234,0.4948623478412628,0.3794618248939514
1685548208869924600,21.512924560546875,10.313530921936035,0.46794193983078003,0.3235332667827606
1685548208889924600,21.532924560546874,10.236246109008789,0.4512016773223877,0.37880101799964905
1685548208909924600,21.552924560546874,9.942717552185059,0.5397775769233704,0.3182181417942047
1685548208929924600,21.572924560546873,9.545461654663086,0.4644942879676819,0.1435754895210266
1685548208949924600,21.592924560546876,9.573502540588379,0.4440765380859375,0.22195206582546234
1685548208969924600,21.612924560546876,9.715968132019043,0.4717918038368225,0.18053238093852997
1685548208989924600,21.632924560546876,9.686460494995117,0.6303262710571289,0.08825027197599411
1685548209009924600,21.652924560546875,9.796853065490723,0.864326000213623,0.0998765155673027
1685548209029924600,21.672924560546875,10.279648780822754,0.8629181385040283,0.24723485112190247
1685548209049924600,21.692924560546874,10.524116516113281,0.6084049940109253,0.32214462757110596
1685548209069924600,21.712924560546874,10.725937843322754,0.5314074158668518,0.49647125601768494
1685548209089924600,21.732924560546873,10.049556732177734,0.216464564204216,0.26017308235168457
1685548209109924600,21.752924560546877,9.316116333007812,0.503031313419342,0.388004332780838
1685548209129924600,21.772924560546876,9.166287422180176,0.666450023651123,0.024535780772566795
1685548209149924600,21.792924560546876,9.13314151763916,0.7175135016441345,-0.0042904093861579895
1685548209169924600,21.812924560546875,9.414576530456543,1.0151032209396362,0.4399489164352417
1685548209189924600,21.832924560546875,9.65804672241211,0.7414268255233765,0.4120517075061798
1685548209209924600,21.852924560546874,10.116948127746582,0.593177855014801,0.47213655710220337
1685548209229924600,21.872924560546874,10.221814155578613,0.4074069559574127,0.4752107262611389
1685548209249924600,21.892924560546874,9.78762149810791,0.5111812353134155,0.5251537561416626
1685548209269924600,21.912924560546877,9.239770889282227,0.5608848333358765,0.40332719683647156
1685548209289924600,21.932924560546876,9.299270629882812,0.5618329644203186,0.3568892776966095
1685548209309924600,21.952924560546876,9.164094924926758,0.4399872422218323,0.3468048870563507
1685548209329924600,21.972924560546875,9.18265438079834,0.6723109483718872,0.47017332911491394
1685548209349924600,21.992924560546875,8.923888206481934,0.7881807684898376,0.24502259492874146
1685548209369924600,22.012924560546875,9.219122886657715,0.8498362302780151,0.45191991329193115
1685548209389924600,22.032924560546874,9.650557518005371,0.6718130111694336,0.6309296488761902
1685548209409924600,22.052924560546874,10.156644821166992,0.6168612837791443,0.6075143218040466
1685548209429924600,22.072924560546873,10.242950439453125,0.5757959485054016,0.5647251605987549
1685548209449924600,22.092924560546876,10.383269309997559,0.4299124479293823,0.6215922236442566
1685548209469924600,22.112924560546876,10.575218200683594,0.4521785080432892,0.7578606009483337
1685548209489924600,22.132924560546876,10.186447143554688,0.471686452627182,0.6685089468955994
1685548209509924600,22.152924560546875,9.473434448242188,0.6723684668540955,0.48516103625297546
1685548209529924600,22.172924560546875,9.404817581176758,0.7421833276748657,0.19570204615592957
1685548209549924600,22.192924560546874,9.79051399230957,0.9558418989181519,0.4321725368499756
1685548209569924600,22.212924560546874,10.025480270385742,0.9120280146598816,0.3017939031124115
1685548209589924600,22.232924560546873,10.118681907653809,0.9004592895507812,0.17119498550891876
1685548209609926100,22.252926025390625,9.915892601013184,0.9147670269012451,0.09386228024959564
1685548209629924600,22.272924560546876,10.313770294189453,0.9086761474609375,0.21136970818042755
1685548209649924600,22.292924560546876,10.338057518005371,0.8696219325065613,0.4275948405265808
1685548209669924600,22.312924560546875,10.248140335083008,1.0218931436538696,0.34959176182746887
1685548209689924600,22.332924560546875,10.038915634155273,0.9274849891662598,0.20734743773937225
1685548209709924600,22.352924560546874,9.96753978729248,1.2006442546844482,0.20111294090747833
1685548209729924600,22.372924560546874,10.119400024414062,1.387784719467163,0.1789139062166214
1685548209749924600,22.392924560546874,9.970355987548828,1.1077971458435059,-0.04545152559876442
1685548209769924600,22.412924560546877,9.771943092346191,0.901244580745697,-0.11535263806581497
1685548209789924600,22.432924560546876,9.696746826171875,0.89519202709198,0.03788584843277931
1685548209809924600,22.452924560546876,9.5389404296875,0.9350124001502991,-0.0015035585965961218
1685548209829924600,22.472924560546875,9.344808578491211,0.9625456929206848,-0.0600753091275692
1685548209849926100,22.492926025390624,9.162839889526367,1.1559301614761353,0.18586666882038116
1685548209869924600,22.512924560546875,8.853968620300293,1.068273663520813,0.24010969698429108
1685548209889924600,22.532924560546874,8.779191970825195,0.7915614247322083,0.0101322615519166
1685548209909924600,22.552924560546874,9.272436141967773,0.706193745136261,0.025905262678861618
1685548209929924600,22.572924560546873,9.656418800354004,0.7717661261558533,-0.1312597244977951
1685548209949924600,22.592924560546876,9.877853393554688,0.8536478281021118,-0.08182423561811447
1685548209969924600,22.612924560546876,9.809810638427734,1.1249395608901978,0.2723739743232727
1685548209989924600,22.632924560546876,9.530234336853027,1.2534029483795166,0.5068429112434387
1685548210009924600,22.652924560546875,9.399741172790527,1.2744622230529785,0.5303444266319275
1685548210029924600,22.672924560546875,9.449549674987793,1.2185624837875366,0.4150013327598572
1685548210049924600,22.692924560546874,9.707099914550781,1.2992184162139893,0.41495347023010254
1685548210069924600,22.712924560546874,10.237682342529297,1.0554790496826172,0.20325814187526703
1685548210089924600,22.732924560546873,10.346600532531738,0.8181849122047424,-0.048046842217445374
1685548210109924600,22.752924560546877,10.107620239257812,1.0342471599578857,0.17800410091876984
1685548210129924600,22.772924560546876,10.005943298339844,1.1356559991836548,0.13981179893016815
1685548210149924600,22.792924560546876,9.882708549499512,1.1484315395355225,0.11986330896615982
1685548210169924600,22.812924560546875,9.820574760437012,1.149647831916809,0.061502255499362946
1685548210189924600,22.832924560546875,9.82419490814209,1.0351953506469727,-0.05302678048610687
1685548210209924600,22.852924560546874,9.997095108032227,1.0412765741348267,0.2772485613822937
1685548210229924600,22.872924560546874,9.894296646118164,0.8952590227127075,0.3435966670513153
1685548210249924600,22.892924560546874,9.452892303466797,0.8342260718345642,0.2726612687110901
1685548210269924600,22.912924560546877,9.092737197875977,0.6728089451789856,-0.028021736070513725
1685548210289924600,22.932924560546876,9.106385231018066,0.6921062469482422,-0.050651729106903076
1685548210309924600,22.952924560546876,9.015376091003418,0.9574604034423828,0.31301793456077576
1685548210329924600,22.972924560546875,8.838913917541504,1.113964557647705,0.3337134122848511
1685548210349924600,22.992924560546875,8.97109317779541,1.2116576433181763,0.4327567517757416
1685548210369924600,23.012924560546875,9.474651336669922,1.131585955619812,0.3952539563179016
1685548210389924600,23.032924560546874,10.114640235900879,0.942166268825531,0.2628929018974304
1685548210409924600,23.052924560546874,10.204968452453613,0.8355093598365784,0.16445292532444
1685548210429924600,23.072924560546873,10.288124084472656,0.9867941737174988,0.4175296425819397
1685548210449924600,23.092924560546876,10.109804153442383,0.9783570170402527,0.6235746741294861
1685548210469924600,23.112924560546876,9.525694847106934,0.8254441618919373,0.2982792258262634
1685548210489924600,23.132924560546876,9.126428604125977,0.6894151568412781,0.08321287482976913
1685548210509924600,23.152924560546875,9.051624298095703,0.752210259437561,-0.03116292878985405
1685548210529924600,23.172924560546875,9.398621559143066,0.6809396743774414,-0.18159541487693787
1685548210549924600,23.192924560546874,10.273874282836914,0.6147447824478149,-0.09280883520841599
1685548210569924600,23.212924560546874,10.817797660827637,0.722206175327301,0.09604579210281372
1685548210589924600,23.232924560546873,11.347251892089844,0.7988876104354858,0.44493845105171204
1685548210609924600,23.252924560546877,11.524901390075684,0.9129665493965149,0.8035228252410889
1685548210629924600,23.272924560546876,10.654073715209961,0.9643557071685791,0.6598515510559082
1685548210649924600,23.292924560546876,9.759407997131348,1.1189827919006348,0.5021311044692993
1685548210669924600,23.312924560546875,9.103118896484375,1.0803691148757935,0.17826268076896667
1685548210689924600,23.332924560546875,9.032825469970703,0.8870134353637695,-0.0034093433059751987
1685548210709924600,23.352924560546874,9.405258178710938,0.911328911781311,0.07290823012590408
1685548210729924600,23.372924560546874,9.906583786010742,0.941840648651123,0.17365624010562897
1685548210749924600,23.392924560546874,10.43978214263916,0.8999516367912292,0.27225902676582336
1685548210769924600,23.412924560546877,10.826139450073242,0.8517037630081177,0.38429808616638184
1685548210789924600,23.432924560546876,10.7063627243042,0.8843318819999695,0.48769888281822205
1685548210809924600,23.452924560546876,9.950244903564453,0.9632447957992554,0.33060094714164734
1685548210829924600,23.472924560546875,9.264928817749023,0.9525954127311707,0.16644489765167236
1685548210849924600,23.492924560546875,8.910164833068848,0.8744007349014282,0.11739249527454376
1685548210869924600,23.512924560546875,8.764100074768066,0.8627745509147644,0.042616792023181915
1685548210889924600,23.532924560546874,8.913948059082031,0.9413139224052429,0.0835384801030159
1685548210909924600,23.552924560546874,9.48960018157959,0.9489466547966003,0.24392126500606537
1685548210929924600,23.572924560546873,9.902782440185547,0.9463321566581726,0.3750564754009247
1685548210949924600,23.592924560546876,10.101471900939941,1.0216825008392334,0.42528682947158813
1685548210969924600,23.612924560546876,10.057735443115234,1.007671594619751,0.4578288197517395
1685548210989926100,23.632926025390624,9.470925331115723,0.9023458957672119,0.3076549172401428
1685548211009924600,23.652924560546875,8.702242851257324,0.9075556397438049,0.15872599184513092
1685548211029924600,23.672924560546875,8.300362586975098,1.0557280778884888,0.15158168971538544
1685548211049924600,23.692924560546874,8.373577117919922,1.116780161857605,0.1495322585105896
1685548211069924600,23.712924560546874,8.844927787780762,1.0575954914093018,0.15066231787204742
1685548211089924600,23.732924560546873,9.677621841430664,0.9849171042442322,0.1537652164697647
1685548211109924600,23.752924560546877,10.324295997619629,1.0608420372009277,0.30049145221710205
1685548211129924600,23.772924560546876,10.658315658569336,1.263324499130249,0.5218976736068726
1685548211149924600,23.792924560546876,10.987020492553711,1.330304741859436,0.8233467936515808
1685548211169924600,23.812924560546875,10.585847854614258,1.107567310333252,0.6815047264099121
1685548211189924600,23.832924560546875,9.638501167297363,1.0175548791885376,0.364033579826355
1685548211209924600,23.852924560546874,8.876100540161133,1.045231819152832,0.07754340022802353
1685548211229924600,23.872924560546874,9.004497528076172,1.0618572235107422,-0.03688985854387283
1685548211249924600,23.892924560546874,9.687878608703613,1.031699776649475,-0.0030837319791316986
1685548211269924600,23.912924560546877,10.685590744018555,1.0541956424713135,0.19780895113945007
1685548211289924600,23.932924560546876,11.403611183166504,1.1102584600448608,0.533868670463562
1685548211309924600,23.952924560546876,11.56413745880127,1.0817290544509888,0.6633183360099792
1685548211329924600,23.972924560546875,10.880813598632812,1.1081993579864502,0.5633173584938049
1685548211349924600,23.992924560546875,9.82241439819336,1.1057476997375488,0.3327653110027313
1685548211369924600,24.012924560546875,9.070308685302734,1.0702369213104248,0.2265297919511795
1685548211389926100,24.032926025390626,8.674729347229004,1.1193946599960327,0.19917842745780945
1685548211409924600,24.052924560546874,8.717747688293457,1.1647025346755981,0.09187030792236328
1685548211429924600,24.072924560546873,9.392395973205566,1.2061030864715576,0.10915643721818924
1685548211449924600,24.092924560546876,10.284101486206055,1.228713870048523,0.2892674505710602
1685548211469924600,24.112924560546876,10.687438011169434,1.2090814113616943,0.5014799237251282
1685548211489924600,24.132924560546876,10.407307624816895,1.1394197940826416,0.5309286117553711
1685548211509924600,24.152924560546875,9.485721588134766,1.0814225673675537,0.370201051235199
1685548211529924600,24.172924560546875,8.636709213256836,1.0514280796051025,0.19815371930599213
1685548211549924600,24.192924560546874,8.346014976501465,1.0908079147338867,0.19386330246925354
1685548211569924600,24.212924560546874,8.458292961120605,1.1449168920516968,0.23639389872550964
1685548211589924600,24.232924560546873,8.944440841674805,1.206160545349121,0.22714270651340485
1685548211609924600,24.252924560546877,9.728655815124512,1.096084713935852,0.1574905812740326
1685548211629926100,24.272926025390625,10.455095291137695,1.06513249874115,0.33454659581184387
1685548211649924600,24.292924560546876,10.647149085998535,1.0954142808914185,0.5688431859016418
1685548211669924600,24.312924560546875,9.991109848022461,1.156322717666626,0.6759406328201294
1685548211689924600,24.332924560546875,8.899582862854004,1.1471387147903442,0.30476272106170654
1685548211709924600,24.352924560546874,8.283133506774902,1.1552406549453735,0.06721960753202438
1685548211729926100,24.372926025390626,8.462488174438477,1.0982011556625366,0.06355168670415878
1685548211749924600,24.392924560546874,9.301358222961426,1.072899341583252,0.07375099509954453
1685548211769924600,24.412924560546877,10.061346054077148,1.0265666246414185,0.24912147223949432
1685548211789924600,24.432924560546876,10.385261535644531,1.160287618637085,0.5055021643638611
1685548211809924600,24.452924560546876,10.373749732971191,1.4490569829940796,0.7216219305992126
1685548211829924600,24.472924560546875,10.064640045166016,1.5900756120681763,0.898227870464325
1685548211849924600,24.492924560546875,9.924310684204102,0.3478296101093292,0.03128742799162865
1685548211869924600,24.512924560546875,10.025432586669922,1.4698865413665771,0.8284800052642822
1685548211889924600,24.532924560546874,9.694639205932617,0.9530263543128967,0.44700703024864197
1685548211909924600,24.552924560546874,9.51151180267334,0.8726195096969604,0.1270459145307541
1685548211929924600,24.572924560546873,9.4155912399292,0.9632735848426819,0.07171113044023514
1685548211949924600,24.592924560546876,9.709138870239258,0.9348208904266357,0.07233361899852753
1685548211969926100,24.612926025390625,10.247862815856934,0.8709243535995483,0.14860332012176514
1685548211989924600,24.632924560546876,10.938485145568848,1.0198533535003662,0.7039144039154053
1685548212009924600,24.652924560546875,10.953865051269531,0.6985322833061218,0.21172404289245605
1685548212029926100,24.672926025390623,10.616445541381836,0.6195331811904907,-0.02679590694606304
1685548212049924600,24.692924560546874,10.256204605102539,0.579119086265564,-0.08667010813951492
1685548212069924600,24.712924560546874,9.602587699890137,0.6847129464149475,0.16122554242610931
1685548212089924600,24.732924560546873,9.212984085083008,0.8427015542984009,0.29934224486351013
1685548212109924600,24.752924560546877,9.224122047424316,0.9636470079421997,0.2848908305168152
1685548212129924600,24.772924560546876,9.583654403686523,0.9239703416824341,0.18967823684215546
1685548212149924600,24.792924560546876,10.306751251220703,0.8766321539878845,0.3637654483318329
1685548212169924600,24.812924560546875,10.645617485046387,0.8634448647499084,0.47534480690956116
1685548212189924600,24.832924560546875,10.13687801361084,0.9510918855667114,0.41995254158973694
1685548212209924600,24.852924560546874,9.500421524047852,1.0132356882095337,0.22735339403152466
1685548212229924600,24.872924560546874,9.207515716552734,1.0699687004089355,0.28748616576194763
1685548212249924600,24.892924560546874,9.176046371459961,1.1277838945388794,0.44915226101875305
1685548212269924600,24.912924560546877,9.080153465270996,1.0915069580078125,0.3493044376373291
1685548212289924600,24.932924560546876,9.100811004638672,1.085301160812378,0.24344243109226227
1685548212309924600,24.952924560546876,9.360773086547852,1.055948257446289,0.09226295351982117
1685548212329924600,24.972924560546875,9.977701187133789,0.9908355474472046,0.21371601521968842
1685548212349924600,24.992924560546875,10.381335258483887,0.931363582611084,0.3358394503593445
1685548212369924600,25.012924560546875,9.898214340209961,0.9632064700126648,0.3481169044971466
1685548212389924600,25.032924560546874,9.0725679397583,0.9669988751411438,0.11812033504247665
1685548212409924600,25.052924560546874,8.583088874816895,0.9939385056495667,-0.02758120372891426
1685548212429924600,25.072924560546873,8.729364395141602,1.0643566846847534,0.007115567568689585
1685548212449924600,25.092924560546876,9.428788185119629,1.0489189624786377,0.11348515748977661
1685548212469924600,25.112924560546876,10.165990829467773,0.9162993431091309,0.215133398771286
1685548212489924600,25.132924560546876,10.287147521972656,0.9420608878135681,0.31232839822769165
1685548212509924600,25.152924560546875,9.805088996887207,0.9880200028419495,0.19838355481624603
1685548212529932500,25.1729326171875,9.202383041381836,1.1218845844268799,-0.008418013341724873
1685548212549924600,25.192924560546874,9.457403182983398,1.1730725765228271,0.1469082236289978
1685548212569924600,25.212924560546874,10.021726608276367,1.0544638633728027,0.33406776189804077
1685548212589924600,25.232924560546873,10.234580039978027,0.8658487200737,0.26136061549186707
1685548212609924600,25.252924560546877,9.905990600585938,0.9123536348342896,0.18334795534610748
1685548212629924600,25.272924560546876,9.485137939453125,1.0683215856552124,0.1271704137325287
1685548212649924600,25.292924560546876,9.736806869506836,1.0505948066711426,0.17529386281967163
1685548212669924600,25.312924560546875,10.244673728942871,1.0048177242279053,0.282850980758667
1685548212689926100,25.332926025390623,10.337693214416504,1.0497137308120728,0.33152031898498535
1685548212709926100,25.352926025390627,10.142709732055664,1.0815374851226807,0.30557674169540405
1685548212729924600,25.372924560546874,9.958030700683594,0.9929137825965881,0.07606857270002365
1685548212749924600,25.392924560546874,9.843578338623047,1.0078439712524414,0.02727474644780159
1685548212769924600,25.412924560546877,9.843280792236328,1.0405967235565186,0.25069206953048706
