time,seconds_elapsed,z,y,x
1685548999643796000,0.2317958984375,-0.04801400750875473,-0.05244714394211769,-0.22575834393501282
1685548999670775600,0.258775634765625,-0.010524335317313671,0.00041887903353199363,0.03185226023197174
1685548999690775600,0.278775634765625,0.003857177682220936,-0.00024434609804302454,0.05852089077234268
1685548999710775600,0.298775634765625,0.004625122528523207,-0.00041887903353199363,0.06471680849790573
1685548999730775600,0.318775634765625,-0.0022165682166814804,-0.001518436474725604,0.04398229718208313
1685548999750777300,0.33877734375,-0.0019024088978767395,-0.0008203047327697277,0.0207345113158226
1685548999770775600,0.358775634765625,-0.009686577133834362,-0.002775073517113924,0.0035604715812951326
1685548999790775600,0.378775634765625,-0.022392574697732925,-0.0038397242315113544,0.00563741335645318
1685548999810777300,0.39877734375,-0.021205751225352287,-0.004956734832376242,0.01825614459812641
1685548999830777300,0.41877734375,-0.012409291230142117,-0.0103672556579113,0.03104940801858902
1685548999850775600,0.438775634765625,-0.003577925032004714,-0.012723450548946857,0.04256857931613922
1685548999870775600,0.458775634765625,0.005235987715423107,-0.010855947621166706,0.05281366407871246
1685548999890777300,0.47877734375,0.0038397242315113544,-0.008569566532969475,0.04354596510529518
1685548999910775600,0.498775634765625,0.0033684854861348867,-0.0055850534699857235,0.015044738538563251
1685548999930793000,0.51879296875,0.003263765713199973,-0.004852015525102615,-0.006911503616720438
1685548999950777300,0.53877734375,0.0003316125657875091,-0.0034208453726023436,-0.012217304669320583
1685548999970775600,0.558775634765625,0.00296705961227417,-0.004450589418411255,-0.003630284918472171
1685548999990775600,0.578775634765625,0.00563741335645318,-0.0016231562476605177,0.002286381321027875
1685549000010777300,0.59877734375,-0.0008028514566831291,-0.00047123889089562,-0.00062831852119416
1685549000030777300,0.61877734375,-0.0023038345389068127,0.00043633230961859226,-0.0038222710136324167
1685549000050775600,0.638775634765625,-0.006370451766997576,0.000052359879191499203,-0.002809980185702443
1685549000070775600,0.658775634765625,-0.003525565145537257,0.0008377580670639873,0.006230825558304787
1685549000090775600,0.678775634765625,0.0009773843921720982,-0.0006108652451075613,0.02572615258395672
1685549000110775600,0.698775634765625,0.007487462367862463,-0.00043633230961859226,0.03768165782094002
1685549000130775600,0.718775634765625,0.00970403105020523,-0.0009075712296180427,0.026284659281373024
1685549000150775600,0.738775634765625,0.004852015525102615,-0.004869468510150909,0.009669124148786068
1685549000170775600,0.758775634765625,0.005689773242920637,0.0027576202992349863,0.001518436474725604
1685549000190777300,0.77877734375,-0.00013962633966002613,0.0020943949930369854,-0.0010995573829859495
1685549000210775600,0.798775634765625,-0.006667157635092735,-0.0011693706037476659,0.0007330382941290736
1685549000230775600,0.818775634765625,-0.005288347601890564,-0.0051312679424881935,0.0017976891249418259
1685549000250777300,0.83877734375,0.0016057029133662581,-0.0016755161341279745,0.00031415926059708
1685549000270775600,0.858775634765625,-0.0005585053586401045,-0.0017278759041801095,0.004485496319830418
1685549000290775600,0.878775634765625,-0.0013962633674964309,0.000715585018042475,0.009424777701497078
1685549000310775600,0.898775634765625,0.011763518676161766,-0.00017453292093705386,0.02506292797625065
1685549000330777300,0.91877734375,0.017994344234466553,-0.0014660765882581472,0.021764256060123444
1685549000350777300,0.93877734375,0.010821041651070118,-0.00376991112716496,0.0009250245057046413
1685549000370775600,0.958775634765625,0.002687806962057948,-0.0015358896926045418,-0.0013613568153232336
1685549000390777300,0.97877734375,0.0010646508308127522,-0.0016929693520069122,0.010943214409053326
1685549000410775600,0.998775634765625,0.0024958208668977022,-0.0024260077625513077,0.02024581842124462
1685549000430775600,1.018775634765625,0.0005410520825535059,0.00062831852119416,0.0200189258903265
1685549000450775600,1.038775634765625,-0.0004886921960860491,-0.00006981316983001307,0.009669124148786068
1685549000470777300,1.05877734375,-0.0014660765882581472,0.002321287989616394,-0.0005410520825535059
1685549000490777300,1.07877734375,-0.004956734832376242,0.006928957067430019,0.0023387412074953318
1685549000510775600,1.098775634765625,-0.0031241392716765404,0.0045553091913461685,0.0066147977486252785
1685549000530775600,1.118775634765625,-0.00047123889089562,0.0020420351065695286,0.0067544239573180676
1685549000550775600,1.138775634765625,-0.0016406094655394554,0.0018151424592360854,-0.0034382985904812813
1685549000570777300,1.15877734375,-0.006073745898902416,0.003630284918472171,-0.006771877408027649
1685549000590775600,1.178775634765625,-0.007155850064009428,0.0019024088978767395,0
1685549000610775600,1.198775634765625,-0.0015882495790719986,0.0020943949930369854,0.00563741335645318
1685549000630791400,1.21879150390625,-0.00010471975838299841,0.0012915435945615172,0.0012915435945615172
1685549000650777300,1.23877734375,0.005358160939067602,0.0010995573829859495,-0.0028623400721699
1685549000670777300,1.25877734375,0.003630284918472171,0.0008377580670639873,-0.006352998316287994
1685549000690775600,1.278775634765625,-0.0006632251315750182,0.00043633230961859226,-0.005375613924115896
1685549000710777300,1.29877734375,0.00013962633966002613,-0.00010471975838299841,-0.0006632251315750182
1685549000730775600,1.318775634765625,0.002146754879504442,0.00003490658491500653,0.0017802357906475663
1685549000750775600,1.338775634765625,0.00548033369705081,0.0003665191470645368,-0.0006457717972807586
1685549000770777300,1.35877734375,0.0016406094655394554,-0.00013962633966002613,-0.006300638429820538
1685549000790775600,1.378775634765625,-0.002024581888690591,0.0019024088978767395,-0.011082841083407402
1685549000810775600,1.398775634765625,-0.0032114058267325163,0.0016057029133662581,-0.007801621686667204
1685549000830775600,1.418775634765625,-0.006510077975690365,0.003455751808360219,-0.005602506920695305
1685549000850777300,1.43877734375,-0.004886921960860491,0.001029744278639555,-0.005427973810583353
1685549000870775600,1.458775634765625,0.0016231562476605177,-0.0010821041651070118,0.0012915435945615172
1685549000890775600,1.478775634765625,0.006073745898902416,-0.0038222710136324167,0.0033335788175463676
1685549000910775600,1.498775634765625,0.003577925032004714,-0.005602506920695305,-0.011344640515744686
1685549000930777300,1.51877734375,0.00040142572834156454,-0.00012217304902151227,-0.02670353837311268
1685549000950775600,1.538775634765625,-0.012723450548946857,0.007819075137376785,-0.006928957067430019
1685549000970775600,1.558775634765625,-0.01895427517592907,0.007033676840364933,0.003996803890913725
1685549000990775600,1.578775634765625,-0.01286307629197836,0.0010995573829859495,0.0008377580670639873
1685549001010777300,1.59877734375,0.0008726646192371845,-0.0009250245057046413,-0.003909537568688393
1685549001030775600,1.618775634765625,0.0031066860537976027,-0.00045378561480902135,-0.0011693706037476659
1685549001050775600,1.638775634765625,-0.00003490658491500653,0.0008726646192371845,0.003979350905865431
1685549001070777300,1.65877734375,0.004764748737215996,-0.00015707963029854,0.001745329238474369
1685549001090775600,1.678775634765625,0.00898844562470913,-0.0007679448463022709,0.001343903481028974
1685549001110777300,1.69877734375,0.005515240598469973,-0.00022689280740451068,0.006702064536511898
1685549001130775600,1.718775634765625,0.00188495556358248,-0.0036477381363511086,0.019634954631328583
1685549001150775600,1.738775634765625,0.003036872949451208,-0.0041015236638486385,0.028379052877426147
1685549001170777300,1.75877734375,0.006510077975690365,-0.0018500490114092827,0.022916173562407494
1685549001190775600,1.778775634765625,0.003176499158143997,-0.0008203047327697277,0.0007853981805965304
1685549001210777300,1.79877734375,-0.0005061454721726477,-0.003089232835918665,-0.009686577133834362
1685549001230775600,1.818775634765625,-0.0026529005263000727,0.0038920841179788113,0.0027052604127675295
1685549001250775600,1.838775634765625,-0.0037873645778745413,0.00617846567183733,0.006684611085802317
1685549001270777300,1.85877734375,-0.003717551240697503,0.007365289609879255,-0.0002617993741296232
1685549001290775600,1.878775634765625,-0.008534659631550312,0.003804817795753479,-0.0028972465079277754
1685549001310775600,1.898775634765625,-0.014713125303387642,0.005532693583518267,0.0023387412074953318
1685549001330793000,1.91879296875,-0.012531463988125324,0.004066617228090763,0.0035604715812951326
1685549001350775600,1.938775634765625,-0.007417649496346712,0.003926991019397974,-0.004258603323251009
1685549001370775600,1.958775634765625,-0.01151917316019535,0.0051312679424881935,-0.005602506920695305
1685549001390777300,1.97877734375,-0.01603957638144493,0.0067369709722697735,-0.00027925267932005227
1685549001410777300,1.99877734375,-0.015446163713932037,0.006928957067430019,0.010227628983557224
1685549001430777300,2.01877734375,-0.012304571457207203,0.008482299745082855,0.021903881803154945
1685549001450777300,2.03877734375,-0.005899212788790464,0.0080634206533432,0.01682497374713421
1685549001470777300,2.05877734375,-0.0044156829826533794,0.006352998316287994,0.00019198621157556772
1685549001490775600,2.078775634765625,-0.00855211354792118,0.009372417815029621,-0.011728612706065178
1685549001510775600,2.098775634765625,-0.012810716405510902,0.007155850064009428,-0.008464846760034561
1685549001530777300,2.11877734375,-0.014119713567197323,0.007627088576555252,0.0010995573829859495
1685549001550775600,2.138775634765625,-0.010978121310472488,0.00753982225432992,0.018308503553271294
1685549001570777300,2.15877734375,-0.013910274021327496,0.005689773242920637,0.03703588619828224
1685549001590775600,2.178775634765625,-0.008726646192371845,0.008272860199213028,0.04680972918868065
1685549001610775600,2.198775634765625,-0.01014036312699318,0.004956734832376242,0.05021312087774277
1685549001630775600,2.218775634765625,-0.009529497474431992,0.006579891312867403,0.04187044873833656
1685549001650775600,2.238775634765625,-0.0077667152509093285,0.007923794910311699,0.01748819835484028
1685549001670777300,2.25877734375,-0.009861109778285027,0.0010821041651070118,-0.00038397242315113544
1685549001690775600,2.278775634765625,-0.010821041651070118,0.00188495556358248,-0.006981316953897476
1685549001710775600,2.298775634765625,-0.02192133478820324,0.005061454605311155,0.019722219556570053
1685549001730775600,2.318775634765625,-0.03248057886958122,0.007051130291074514,0.07496189326047897
1685549001750775600,2.338775634765625,-0.02263692021369934,0.006213372107595205,0.10936233401298523
1685549001770777300,2.35877734375,-0.018500490114092827,0.0015707963611930609,0.10672688484191895
1685549001790777300,2.37877734375,-0.021537363529205322,0.004153883550316095,0.06799802929162979
1685549001810775600,2.398775634765625,-0.033126350492239,0.012461651116609573,0.005340707488358021
1685549001830775600,2.418775634765625,-0.02125811018049717,0.008674286305904388,-0.031101766973733902
1685549001850775600,2.438775634765625,-0.01794198527932167,0.004974188283085823,-0.021153390407562256
1685549001870775600,2.458775634765625,-0.010663961991667747,0.0008377580670639873,0.03621558099985123
1685549001890775600,2.478775634765625,-0.017523106187582016,0.0003316125657875091,0.08012806624174118
1685549001910775600,2.498775634765625,-0.014957471750676632,-0.0047996556386351585,-0.02600540593266487
1685549001930775600,2.518775634765625,-0.005462880712002516,0.012042772024869919,-0.048083819448947906
1685549001950775600,2.538775634765625,-0.027646014466881752,0.0213104709982872,-0.03654719516634941
1685549001970786600,2.55878662109375,-0.017470745369791985,0.015289084054529667,-0.025813419371843338
1685549001990775600,2.578775634765625,0.002548180753365159,0.0016929693520069122,-0.0038222710136324167
1685549002010775600,2.598775634765625,0.007941247895359993,0.0017976891249418259,0.03248057886958122
1685549002030793000,2.61879296875,0.0006981316837482154,0.0016929693520069122,0.032271139323711395
1685549002050775600,2.638775634765625,-0.0007330382941290736,-0.0011344640515744686,0.024661501869559288
1685549002070780400,2.658780517578125,-0.002722713630646467,-0.01457349956035614,0.030578168109059334
1685549002090775600,2.678775634765625,-0.01869247667491436,-0.012007865123450756,0.07415904104709625
1685549002110777300,2.69877734375,-0.050736721605062485,0.010524335317313671,0.06995279341936111
1685549002130777300,2.71877734375,-0.009948376566171646,-0.00457276264205575,0.012409291230142117
1685549002150777300,2.73877734375,0.0008377580670639873,-0.002321287989616394,0.001658062799833715
1685549002170775600,2.758775634765625,0.005672320257872343,-0.0025307273026555777,0.004904375411570072
1685549002190775600,2.778775634765625,0.011903145350515842,-0.002234021434560418,0.0019198621157556772
1685549002210775600,2.798775634765625,0.006195918656885624,-0.00472984230145812,0.0003665191470645368
1685549002230777300,2.81877734375,0.005113814491778612,-0.001658062799833715,0.01335176918655634
1685549002250775600,2.838775634765625,0.01005309633910656,-0.004363323096185923,0.03145083412528038
1685549002270779000,2.85877880859375,0.01202531810849905,-0.005201081279665232,0.020961403846740723
1685549002290775600,2.878775634765625,0.01242674421519041,-0.003490658476948738,-0.005148721393197775
1685549002310775600,2.898775634765625,0.007941247895359993,-0.0024085543118417263,-0.010576695203781128
1685549002330777300,2.91877734375,0.0017278759041801095,-0.00041887903353199363,0.0013264502631500363
1685549002350777300,2.93877734375,-0.00019198621157556772,0.00027925267932005227,0.009424777701497078
1685549002370777300,2.95877734375,0.0027576202992349863,0.00022689280740451068,0.016493361443281174
1685549002390775600,2.978775634765625,0.004974188283085823,0.00031415926059708,0.008517206646502018
1685549002410775600,2.998775634765625,0.004049163777381182,0.0011519172694534063,-0.0062831854447722435
1685549002430777300,3.01877734375,0.00047123889089562,-0.00024434609804302454,-0.014800392091274261
1685549002450777300,3.03877734375,0.006440265104174614,0.0005759586347267032,-0.0018500490114092827
1685549002470775600,3.058775634765625,0.0022165682166814804,-0.0037000980228185654,0.006649704650044441
1685549002490777300,3.07877734375,0.009110618382692337,-0.007225662935525179,0.008272860199213028
1685549002510777300,3.09877734375,0.016441000625491142,-0.0020943949930369854,0.012444197200238705
1685549002530777300,3.11877734375,0.0018151424592360854,0.00013962633966002613,0.005270894151180983
1685549002550775600,3.138775634765625,-0.013648474588990211,-0.0003316125657875091,-0.005061454605311155
1685549002570777300,3.15877734375,-0.008656833320856094,0.0006457717972807586,-0.007609635591506958
1685549002590775600,3.178775634765625,0.0007330382941290736,0.004293509759008884,0.0005759586347267032
1685549002610777300,3.19877734375,0.00019198621157556772,0.007155850064009428,0.015254177153110504
1685549002630775600,3.218775634765625,0.010018189437687397,0.0020943949930369854,0.031817350536584854
1685549002650777300,3.23877734375,0.02028072625398636,-0.00043633230961859226,0.03462733328342438
1685549002670775600,3.258775634765625,0.017680184915661812,-0.005305801052600145,0.011152653954923153
1685549002690777300,3.27877734375,0.007504915818572044,-0.008220500312745571,-0.008482299745082855
1685549002710775600,3.298775634765625,-0.0008377580670639873,-0.006021386012434959,-0.0070685832761228085
1685549002730791400,3.31879150390625,-0.003926991019397974,-0.003577925032004714,0.011815878562629223
1685549002750777300,3.33877734375,-0.0018675023457035422,-0.0006457717972807586,0.030595621094107628
1685549002770775600,3.358775634765625,-0.010646508075296879,0.004782202187925577,-0.0103672556579113
1685549002790775600,3.378775634765625,-0.008796459063887596,0.005672320257872343,-0.0688532367348671
1685549002810782000,3.398781982421875,-0.012636183761060238,0.012095131911337376,-0.0760265439748764
1685549002830775600,3.418775634765625,-0.011082841083407402,0.010908307507634163,-0.06436774134635925
1685549002850775600,3.438775634765625,-0.00502654816955328,0.008220500312745571,-0.04297000542283058
1685549002870777300,3.45877734375,0.00041887903353199363,0.004712388850748539,-0.02396337129175663
1685549002890775600,3.478775634765625,-0.0026703537441790104,0.006667157635092735,-0.007522369269281626
1685549002910785000,3.498784912109375,-0.004363323096185923,0.0015707963611930609,-0.003857177682220936
1685549002930777300,3.51877734375,-0.004293509759008884,0.0008377580670639873,0.002373647876083851
1685549002950775600,3.538775634765625,-0.003508111694827676,-0.0012042771559208632,0.011780972592532635
1685549002970775600,3.558775634765625,-0.0021642083302140236,0.000052359879191499203,0.018448129296302795
1685549002990777300,3.57877734375,-0.0006457717972807586,-0.0015707963611930609,0.014276793226599693
1685549003010775600,3.598775634765625,0.0019547687843441963,0.00031415926059708,0.003351032268255949
1685549003030777300,3.61877734375,0.0029321531765162945,0.00029670598451048136,0.0011868239380419254
1685549003050775600,3.638775634765625,0.001658062799833715,0.0009075712296180427,0.0036477381363511086
1685549003070777300,3.65877734375,0.0013264502631500363,0.0033684854861348867,0.005166174378246069
1685549003090775600,3.678775634765625,-0.0004886921960860491,0.002007128670811653,-0.006021386012434959
1685549003110779000,3.69877880859375,-0.000715585018042475,0.0021293016616255045,-0.010541788302361965
1685549003130777300,3.71877734375,-0.00027925267932005227,-0.0009773843921720982,-0.0017104226863011718
1685549003150777300,3.73877734375,-0.0008203047327697277,-0.0009948377264663577,0.01417207345366478
1685549003170775600,3.758775634765625,-0.0023038345389068127,-0.0011519172694534063,0.022252947092056274
1685549003190777300,3.77877734375,0.00027925267932005227,-0.002199114765971899,0.01869247667491436
1685549003210783500,3.798783447265625,0.007278022821992636,-0.002687806962057948,0.011885692365467548
1685549003230777300,3.81877734375,0.0073303827084600925,-0.005305801052600145,0.004188789986073971
1685549003250777300,3.83877734375,0.008726646192371845,-0.0031590459402650595,-0.009669124148786068
1685549003270777300,3.85877734375,0.0021642083302140236,-0.00024434609804302454,-0.009424777701497078
1685549003290775600,3.878775634765625,-0.006300638429820538,0.0009773843921720982,0.0034382985904812813
1685549003310775600,3.898775634765625,-0.007225662935525179,-0.0034732052590698004,0.01151917316019535
1685549003330775600,3.918775634765625,0.00296705961227417,-0.0017976891249418259,0.0019373154500499368
1685549003350775600,3.938775634765625,0.004660028964281082,-0.0027052604127675295,-0.0040317103266716
1685549003370775600,3.958775634765625,0.006719517521560192,-0.002460914198309183,0.013473941944539547
1685549003390777300,3.97877734375,0.0008552113431505859,-0.0073303827084600925,0.01532399095594883
1685549003410786600,3.99878662109375,0.005550147034227848,-0.006318091880530119,0.0029845130629837513
1685549003430793000,4.01879296875,0.02480112947523594,-0.008569566532969475,0.0003665191470645368
1685549003450777300,4.03877734375,0.0031590459402650595,-0.003490658476948738,0.03174753859639168
1685549003470775600,4.058775634765625,-0.007906341925263405,0.0008377580670639873,0.04623377323150635
1685549003490777300,4.07877734375,-0.005201081279665232,-0.002286381321027875,0.01966986060142517
1685549003510780400,4.098780517578125,0.0068765971809625626,-0.0013788101496174932,0.006841690745204687
1685549003530775600,4.118775634765625,0.0024260077625513077,-0.002478367416188121,0.0020769417751580477
1685549003550775600,4.138775634765625,-0.0015533430268988013,0.00013962633966002613,0.0036651913542300463
1685549003570777300,4.15877734375,-0.006422811653465033,0.0006981316837482154,0.003263765713199973
1685549003590777300,4.17877734375,-0.0050090947188436985,0.00024434609804302454,0.0007679448463022709
1685549003610780400,4.198780517578125,0.002373647876083851,-0.0005061454721726477,0.003298672381788492
1685549003630775600,4.218775634765625,-0.0007504915702156723,0.0011519172694534063,0.0007853981805965304
1685549003650777300,4.23877734375,-0.007120943162590265,0.0008901178953237832,-0.0077667152509093285
1685549003670775600,4.258775634765625,-0.00753982225432992,0.0005061454721726477,-0.0017278759041801095
1685549003690777300,4.27877734375,-0.005550147034227848,-0.0012217304902151227,0.00769690191373229
1685549003710785000,4.298784912109375,-0.007138396613299847,0.0003490658418741077,0.012566370889544487
1685549003730775600,4.318775634765625,-0.006998770404607058,-0.000052359879191499203,0.01235693134367466
1685549003750775600,4.338775634765625,-0.0012740903766825795,-0.00038397242315113544,0.013124875724315643
1685549003770775600,4.358775634765625,0.0023911010939627886,-0.0011519172694534063,0.011135200969874859
1685549003790777300,4.37877734375,-0.0022165682166814804,-0.00062831852119416,0.006457718089222908
1685549003810777300,4.39877734375,-0.0034732052590698004,-0.0005061454721726477,0.01408480666577816
1685549003830775600,4.418775634765625,-0.00019198621157556772,-0.0014137167017906904,0.017784904688596725
1685549003850775600,4.438775634765625,0.001343903481028974,-0.0024958208668977022,0.01333431527018547
1685549003870777300,4.45877734375,0.002722713630646467,-0.0008726646192371845,0.00024434609804302454
1685549003890777300,4.47877734375,0.004886921960860491,-0.0007504915702156723,-0.010349802672863007
1685549003910775600,4.498775634765625,-0.002914699725806713,0.0018500490114092827,-0.010629055090248585
1685549003930775600,4.518775634765625,-0.005846852902323008,0.0020420351065695286,0.0025307273026555777
1685549003950775600,4.538775634765625,-0.006928957067430019,0.00020943951676599681,0.008028514683246613
1685549003970777300,4.55877734375,-0.006649704650044441,0.00013962633966002613,0.003089232835918665
1685549003990775600,4.578775634765625,-0.006143558770418167,0.0004886921960860491,0.001972222002223134
1685549004010775600,4.598775634765625,-0.0026354470755904913,0.0005235987482592463,0.0021293016616255045
1685549004030775600,4.618775634765625,-0.0033859387040138245,-0.002827433403581381,-0.0024958208668977022
1685549004050775600,4.638775634765625,0.004310963209718466,-0.0008203047327697277,-0.013526301831007004
1685549004070775600,4.658775634765625,0.0026703537441790104,0.0029321531765162945,-0.016109388321638107
1685549004090777300,4.67877734375,-0.0077667152509093285,0.003804817795753479,-0.00094247778179124
1685549004110777300,4.69877734375,-0.015446163713932037,-0.0005061454721726477,0.0025307273026555777
1685549004130793000,4.71879296875,-0.0010821041651070118,-0.0019198621157556772,0.0024434609804302454
1685549004150777300,4.73877734375,0.005113814491778612,-0.003001966280862689,0.032218776643276215
1685549004170777300,4.75877734375,-0.0020420351065695286,0.008482299745082855,-0.024818582460284233
1685549004190775600,4.778775634765625,0.00019198621157556772,-0.0009773843921720982,-0.020123645663261414
1685549004210777300,4.79877734375,0.002321287989616394,0.005619960371404886,-0.00898844562470913
1685549004230777300,4.81877734375,-0.020699605345726013,0.006824237294495106,-0.03995058685541153
1685549004250777300,4.83877734375,-0.041748274117708206,-0.00024434609804302454,-0.04309218004345894
1685549004270775600,4.858775634765625,0.0035604715812951326,-0.0011344640515744686,0.019163714721798897
1685549004290775600,4.878775634765625,0.020036378875374794,0.0005410520825535059,0.06845181435346603
1685549004310779000,4.89877880859375,0.006352998316287994,-0.0003665191470645368,0.05752605199813843
1685549004330775600,4.918775634765625,-0.0057246801443398,-0.00029670598451048136,0.015289084054529667
1685549004350777300,4.93877734375,0,0.0012740903766825795,-0.021205751225352287
1685549004370775600,4.958775634765625,0.00015707963029854,0.00019198621157556772,-0.03338814899325371
1685549004390777300,4.97877734375,-0.0028623400721699,0.00024434609804302454,-0.012932890094816685
1685549004410777300,4.99877734375,0.0031590459402650595,-0.00029670598451048136,0.013491394929587841
1685549004430777300,5.01877734375,-0.0010821041651070118,0.00045378561480902135,0.022444933652877808
1685549004450775600,5.038775634765625,-0.005777040030807257,0.00017453292093705386,0.0037350046914070845
1685549004470777300,5.05877734375,-0.0010995573829859495,0.00008726646046852693,-0.008691739290952682
1685549004490777300,5.07877734375,-0.0038746309000998735,0.00003490658491500653,-0.010419615544378757
1685549004510782000,5.098781982421875,-0.0009250245057046413,0.0014660765882581472,-0.0017802357906475663
1685549004530775600,5.118775634765625,-0.0019547687843441963,0.0010646508308127522,0.00045378561480902135
1685549004550775600,5.138775634765625,-0.0012740903766825795,0.001658062799833715,-0.0028972465079277754
1685549004570775600,5.158775634765625,-0.001029744278639555,0.0016755161341279745,-0.008813912980258465
1685549004590775600,5.178775634765625,-0.002007128670811653,0.0009075712296180427,-0.0038746309000998735
1685549004610779000,5.19877880859375,-0.0025307273026555777,-0.0006632251315750182,0.004363323096185923
1685549004630777300,5.21877734375,0.00031415926059708,-0.0008028514566831291,0.006527531426399946
1685549004650775600,5.238775634765625,0.00027925267932005227,-0.00331612559966743,0.0052534411661326885
1685549004670777300,5.25877734375,-0.0004886921960860491,-0.0016929693520069122,0.003804817795753479
1685549004690775600,5.278775634765625,-0.005044001620262861,-0.0007679448463022709,-0.000715585018042475
1685549004710780400,5.298780517578125,-0.00617846567183733,0.00008726646046852693,0.0019373154500499368
1685549004730777300,5.31877734375,0.0021293016616255045,0.00031415926059708,0.006946410518139601
1685549004750775600,5.338775634765625,0.008953538723289967,-0.0026703537441790104,-0.00038397242315113544
1685549004770775600,5.358775634765625,0.0060388389974832535,-0.00038397242315113544,-0.00724311638623476
1685549004790777300,5.37877734375,-0.002809980185702443,0.00003490658491500653,-0.004660028964281082
1685549004810775600,5.398775634765625,-0.008569566532969475,0.001117010717280209,0.011728612706065178
1685549004830793000,5.41879296875,-0.0031590459402650595,0.00029670598451048136,0.010419615544378757
1685549004850777300,5.43877734375,0.0031590459402650595,-0.0014486232539638877,-0.004904375411570072
1685549004870775600,5.458775634765625,0.006510077975690365,-0.0022689281031489372,-0.008848818950355053
1685549004890777300,5.47877734375,0.008499753661453724,-0.0022165682166814804,0.0009250245057046413
1685549004910775600,5.498775634765625,0.00970403105020523,0.0011344640515744686,0.008203047327697277
1685549004930775600,5.518775634765625,0.00045378561480902135,0.006213372107595205,0.0012217304902151227
1685549004950775600,5.538775634765625,-0.009372417815029621,0.0029845130629837513,-0.0011693706037476659
1685549004970775600,5.558775634765625,-0.004258603323251009,-0.00019198621157556772,-0.00609119888395071
1685549004990775600,5.578775634765625,0.009651671163737774,-0.0010122909443452954,-0.010995574295520782
1685549005010775600,5.598775634765625,0.002548180753365159,0.003996803890913725,-0.0025830871891230345
1685549005030777300,5.61877734375,-0.004450589418411255,0.0024958208668977022,0.00017453292093705386
1685549005050775600,5.638775634765625,0.009442231617867947,-0.0014486232539638877,0.008621926419436932
1685549005070777300,5.65877734375,0.015498523600399494,-0.004974188283085823,0.0061610122211277485
1685549005090777300,5.67877734375,0.007976154796779156,-0.005811946466565132,-0.0029845130629837513
1685549005110775600,5.698775634765625,0.00012217304902151227,-0.003228859044611454,0.0024085543118417263
1685549005130775600,5.718775634765625,0.0009948377264663577,-0.003176499158143997,0.005323254037648439
1685549005150775600,5.738775634765625,0.005986479111015797,-0.0032463124953210354,0.0031241392716765404
1685549005170777300,5.75877734375,0.003036872949451208,-0.003508111694827676,0.0042236968874931335
1685549005190775600,5.778775634765625,-0.0014660765882581472,-0.0002617993741296232,-0.0025830871891230345
1685549005210777300,5.79877734375,-0.0010471974965184927,0.0005759586347267032,-0.009512044489383698
1685549005230775600,5.818775634765625,-0.006579891312867403,0.002775073517113924,-0.0010471974965184927
1685549005250775600,5.838775634765625,-0.009983283467590809,0.0026703537441790104,-0.0016231562476605177
1685549005270775600,5.858775634765625,-0.010332348756492138,0.0031415927223861217,0.0032114058267325163
1685549005290777300,5.87877734375,-0.011571533046662807,0.0037000980228185654,0
1685549005310775600,5.898775634765625,-0.01251401100307703,0.003630284918472171,-0.007295476272702217
1685549005330775600,5.918775634765625,-0.011798425577580929,0.0026703537441790104,-0.0073129297234117985
1685549005350775600,5.938775634765625,-0.009477137587964535,0.0028797932900488377,-0.0028448866214603186
1685549005370777300,5.95877734375,-0.007120943162590265,0.0016231562476605177,-0.0034382985904812813
1685549005390777300,5.97877734375,0.0008726646192371845,-0.0008901178953237832,-0.0027576202992349863
1685549005410775600,5.998775634765625,0.0008901178953237832,-0.0016057029133662581,-0.00006981316983001307
1685549005430775600,6.018775634765625,0.0016406094655394554,-0.0010995573829859495,-0.00094247778179124
1685549005450775600,6.038775634765625,-0.0005759586347267032,0.0010122909443452954,0.003752457909286022
1685549005470775600,6.058775634765625,0.00040142572834156454,-0.00045378561480902135,-0.00045378561480902135
1685549005490775600,6.078775634765625,0.0038920841179788113,-0.0026354470755904913,-0.007051130291074514
1685549005510775600,6.098775634765625,0.007627088576555252,-0.0017627825727686286,0.0015707963611930609
1685549005530791400,6.11879150390625,-0.00040142572834156454,0.0013264502631500363,-0.0026354470755904913
1685549005550777300,6.13877734375,-0.005218534264713526,0.002600540639832616,-0.003926991019397974
1685549005570775600,6.158775634765625,-0.00678933085873723,0.005881759338080883,0.007976154796779156
1685549005590777300,6.17877734375,-0.011135200969874859,0.005864306353032589,0.002914699725806713
1685549005610775600,6.198775634765625,-0.013875367119908333,0.006579891312867403,-0.01235693134367466
1685549005630777300,6.21877734375,-0.010157816112041473,0.006387905217707157,-0.00617846567183733
1685549005650777300,6.23877734375,-0.0070685832761228085,0.0036477381363511086,-0.0014486232539638877
1685549005670777300,6.25877734375,-0.007470009382814169,0.0031066860537976027,0.009512044489383698
1685549005690775600,6.278775634765625,-0.0019373154500499368,-0.00008726646046852693,0.008813912980258465
1685549005710775600,6.298775634765625,0.00012217304902151227,0.003944444004446268,-0.012723450548946857
1685549005730777300,6.31877734375,-0.01432915311306715,0.007522369269281626,-0.015376350842416286
1685549005750775600,6.338775634765625,-0.020350538194179535,0.007365289609879255,-0.00815068744122982
1685549005770777300,6.35877734375,-0.007487462367862463,0.0018325956771150231,-0.011030481196939945
1685549005790775600,6.378775634765625,0.004310963209718466,-0.001117010717280209,-0.00518362782895565
1685549005810775600,6.398775634765625,0.003944444004446268,0.004712388850748539,0.0003490658418741077
1685549005830775600,6.418775634765625,-0.009826203808188438,0.00724311638623476,0
1685549005850777300,6.43877734375,-0.005829399451613426,0.006021386012434959,0.0018325956771150231
1685549005870775600,6.458775634765625,-0.005078908056020737,0.003525565145537257,-0.0015533430268988013
1685549005890775600,6.478775634765625,-0.010943214409053326,0.00019198621157556772,0.00015707963029854
1685549005910775600,6.498775634765625,-0.018273597583174706,0.0023387412074953318,0.0008377580670639873
1685549005930777300,6.51877734375,-0.019861847162246704,0.0034732052590698004,-0.010070549324154854
1685549005950775600,6.538775634765625,-0.017907077446579933,0.005427973810583353,-0.010384708642959595
1685549005970775600,6.558775634765625,-0.01710422709584236,0.005410520825535059,-0.005777040030807257
1685549005990775600,6.578775634765625,-0.017907077446579933,0.009983283467590809,-0.0031241392716765404
1685549006010775600,6.598775634765625,-0.016842426732182503,0.008534659631550312,0.011990412138402462
1685549006030775600,6.618775634765625,-0.015620696358382702,0.00799360778182745,0.013491394929587841
1685549006050775600,6.638775634765625,-0.016109388321638107,0.008813912980258465,-0.011484266258776188
1685549006070775600,6.658775634765625,-0.014294246211647987,0.006527531426399946,-0.01532399095594883
1685549006090775600,6.678775634765625,-0.010646508075296879,0.004293509759008884,-0.007819075137376785
1685549006110777300,6.69877734375,-0.014154620468616486,0.003263765713199973,-0.0008552113431505859
1685549006130777300,6.71877734375,-0.0077841682359576225,0.0016231562476605177,0.0049916417337954044
1685549006150775600,6.738775634765625,-0.011693705804646015,0.0010471974965184927,0.00019198621157556772
1685549006170777300,6.75877734375,-0.01251401100307703,0.0007853981805965304,-0.009512044489383698
1685549006190775600,6.778775634765625,-0.0060388389974832535,0.0009075712296180427,-0.010018189437687397
1685549006210777300,6.79877734375,-0.0037350046914070845,0.0015533430268988013,-0.007941247895359993
1685549006230791400,6.81879150390625,-0.0036826448049396276,0.001117010717280209,-0.004782202187925577
1685549006250775600,6.838775634765625,-0.00031415926059708,0.0003490658418741077,0.003263765713199973
1685549006270777300,6.85877734375,0.0024958208668977022,-0.00024434609804302454,0.012601276859641075
1685549006290775600,6.878775634765625,0.003996803890913725,-0.002146754879504442,0.0012915435945615172
1685549006310777300,6.89877734375,0.009075712412595749,-0.0027925267349928617,-0.0033859387040138245
1685549006330775600,6.918775634765625,0.005550147034227848,-0.0011344640515744686,-0.00043633230961859226
1685549006350775600,6.938775634765625,0.006213372107595205,-0.00205948855727911,0.006056292448192835
1685549006370775600,6.958775634765625,0.005078908056020737,-0.0016406094655394554,0.014521139673888683
1685549006390775600,6.978775634765625,0.009110618382692337,-0.0005585053586401045,0.012042772024869919
1685549006410775600,6.998775634765625,0.0049916417337954044,0.00029670598451048136,0.004363323096185923
1685549006430775600,7.018775634765625,0.005410520825535059,-0.00031415926059708,0.0020769417751580477
1685549006450775600,7.038775634765625,0.0045553091913461685,-0.0009599310578778386,0.002024581888690591
1685549006470775600,7.058775634765625,0.0075747291557490826,-0.0037873645778745413,0.006771877408027649
1685549006490777300,7.07877734375,0.008779006078839302,-0.002373647876083851,-0.00010471975838299841
1685549006510775600,7.098775634765625,0.011170106939971447,-0.003351032268255949,0.00040142572834156454
1685549006530777300,7.11877734375,0.009651671163737774,-0.005497787147760391,0.012793263420462608
1685549006550775600,7.138775634765625,0.01539380382746458,-0.006806783843785524,0.01171115878969431
1685549006570777300,7.15877734375,0.015620696358382702,-0.0010995573829859495,0.0011693706037476659
1685549006590775600,7.178775634765625,0.005235987715423107,-0.002809980185702443,-0.0004886921960860491
1685549006610775600,7.198775634765625,0.00017453292093705386,-0.0070685832761228085,0.007260569836944342
1685549006630775600,7.218775634765625,0.006126105785369873,-0.009285151958465576,0.0021118484437465668
1685549006650775600,7.238775634765625,0.008848818950355053,-0.0007853981805965304,-0.017383478581905365
1685549006670777300,7.25877734375,-0.011972958222031593,0.005619960371404886,-0.0051312679424881935
1685549006690775600,7.278775634765625,-0.003752457909286022,0.007888888008892536,0.01005309633910656
1685549006710777300,7.29877734375,0.012985249981284142,0.003054326167330146,0.006073745898902416
1685549006730775600,7.318775634765625,0.013648474588990211,-0.0031590459402650595,-0.003089232835918665
1685549006750775600,7.338775634765625,0.004066617228090763,-0.002478367416188121,0.00040142572834156454
1685549006770775600,7.358775634765625,0.001972222002223134,-0.0013788101496174932,0.007120943162590265
1685549006790775600,7.378775634765625,0.0060388389974832535,0.0007330382941290736,0.004206243436783552
1685549006810775600,7.398775634765625,0.009808750823140144,-0.0010646508308127522,-0.0031415927223861217
1685549006830777300,7.41877734375,0.0024085543118417263,-0.0016755161341279745,-0.003351032268255949
1685549006850777300,7.43877734375,-0.0006457717972807586,-0.0010471974965184927,0.008168140426278114
1685549006870775600,7.458775634765625,0.00457276264205575,-0.0012915435945615172,0.017959438264369965
1685549006890775600,7.478775634765625,0.005166174378246069,-0.0008552113431505859,0.002914699725806713
1685549006910775600,7.498775634765625,0.011030481196939945,-0.002687806962057948,-0.01342158205807209
1685549006930793000,7.51879296875,0.010524335317313671,-0.003996803890913725,-0.013823007233440876
1685549006950777300,7.53877734375,0.0046774824149906635,-0.0028797932900488377,0.002600540639832616
1685549006970777300,7.55877734375,-0.0029845130629837513,-0.003228859044611454,0.014608405530452728
1685549006990777300,7.57877734375,-0.0031590459402650595,-0.0027925267349928617,0.012845623306930065
1685549007010775600,7.598775634765625,-0.000052359879191499203,-0.0008552113431505859,0.0022165682166814804
1685549007030775600,7.618775634765625,-0.00013962633966002613,0.00008726646046852693,-0.014608405530452728
1685549007050777300,7.63877734375,-0.0031241392716765404,-0.00006981316983001307,-0.015463616698980331
1685549007070777300,7.65877734375,-0.0007853981805965304,-0.000017453292457503267,-0.0021816615480929613
1685549007090775600,7.678775634765625,0.0021642083302140236,0.0002617993741296232,0.014695672318339348
1685549007110775600,7.698775634765625,0.005619960371404886,-0.00010471975838299841,0.014538592658936977
1685549007130777300,7.71877734375,0.004834562074393034,-0.0007853981805965304,0.0007504915702156723
1685549007150777300,7.73877734375,0.0041015236638486385,0.0016755161341279745,-0.010227628983557224
1685549007170775600,7.758775634765625,0.0038397242315113544,0.00027925267932005227,-0.011379546485841274
1685549007190775600,7.778775634765625,0.005602506920695305,0.0010995573829859495,-0.003508111694827676
1685549007210777300,7.79877734375,0.0024958208668977022,-0.00006981316983001307,0.003577925032004714
1685549007230777300,7.81877734375,0.00062831852119416,0.0002617993741296232,0.004869468510150909
1685549007250777300,7.83877734375,-0.0049916417337954044,0.0010995573829859495,0.004363323096185923
1685549007270777300,7.85877734375,-0.0008552113431505859,0.0003665191470645368,-0.003263765713199973
1685549007290777300,7.87877734375,0.005270894151180983,0.00003490658491500653,-0.005201081279665232
1685549007310777300,7.89877734375,0.004764748737215996,-0.001343903481028974,-0.00040142572834156454
1685549007330777300,7.91877734375,0.0025656339712440968,-0.004694935865700245,-0.0005410520825535059
1685549007350775600,7.938775634765625,0.006073745898902416,-0.0010821041651070118,0.0007679448463022709
1685549007370775600,7.958775634765625,0.004764748737215996,0.001658062799833715,0.002146754879504442
1685549007390775600,7.978775634765625,-0.0007679448463022709,-0.0003490658418741077,0.00502654816955328
1685549007410775600,7.998775634765625,-0.0009773843921720982,-0.005393067374825478,0.0019198621157556772
1685549007430775600,8.018775634765625,0.0074525559321045876,-0.004660028964281082,-0.004084070213139057
1685549007450775600,8.038775634765624,-0.00017453292093705386,-0.00038397242315113544,-0.00015707963029854
1685549007470775600,8.058775634765626,-0.004049163777381182,0.002199114765971899,0.009512044489383698
1685549007490777300,8.07877734375,0.006021386012434959,0.0034382985904812813,0.012409291230142117
1685549007510775600,8.098775634765625,0.016929693520069122,0.00010471975838299841,0.003298672381788492
1685549007530775600,8.118775634765624,0.007679448463022709,-0.0009948377264663577,-0.007731808349490166
1685549007550777300,8.13877734375,-0.003630284918472171,0.000715585018042475,-0.004782202187925577
1685549007570775600,8.158775634765625,-0.005166174378246069,-0.0007504915702156723,0.005550147034227848
1685549007590775600,8.178775634765625,-0.0010821041651070118,0.00020943951676599681,0.019303342327475548
1685549007610775600,8.198775634765624,0.003508111694827676,0.0023561944253742695,0.019512781873345375
1685549007630793000,8.21879296875,-0.0014486232539638877,0.00019198621157556772,-0.001343903481028974
1685549007650777300,8.23877734375,-0.0012217304902151227,0.0004886921960860491,-0.017034413293004036
1685549007670775600,8.258775634765625,-0.0057072266936302185,0.0018500490114092827,-0.007033676840364933
1685549007690775600,8.278775634765625,-0.006702064536511898,0.0016755161341279745,0.00472984230145812
1685549007710775600,8.298775634765626,-0.00015707963029854,0.0012915435945615172,0.0036826448049396276
1685549007730775600,8.318775634765625,0.001029744278639555,-0.00013962633966002613,-0.001483529806137085
1685549007750775600,8.338775634765625,-0.0004886921960860491,-0.00003490658491500653,-0.004293509759008884
1685549007770775600,8.358775634765625,-0.00457276264205575,-0.00027925267932005227,-0.0032463124953210354
1685549007790777300,8.37877734375,-0.00457276264205575,0.0006981316837482154,-0.0004886921960860491
1685549007810777300,8.39877734375,-0.0024260077625513077,-0.0023911010939627886,-0.0008028514566831291
1685549007830777300,8.41877734375,-0.0003490658418741077,-0.0009773843921720982,0.0025307273026555777
1685549007850775600,8.438775634765625,0.0003490658418741077,0.0010471974965184927,0.009197885170578957
1685549007870775600,8.458775634765624,0.0003316125657875091,0.0005410520825535059,-0.0007330382941290736
1685549007890775600,8.478775634765626,-0.00094247778179124,0.003351032268255949,0.0021118484437465668
1685549007910775600,8.498775634765625,0.0006632251315750182,0.0010995573829859495,0.0033684854861348867
1685549007930775600,8.518775634765625,0.0008203047327697277,-0.0013089969288557768,-0.0016929693520069122
1685549007950775600,8.538775634765624,0.0010821041651070118,-0.00029670598451048136,0.0006108652451075613
1685549007970777300,8.55877734375,0.0007853981805965304,-0.0009075712296180427,-0.006213372107595205
1685549007990775600,8.578775634765625,-0.0010995573829859495,0.0006457717972807586,-0.006422811653465033
1685549008010775600,8.598775634765625,0.0013613568153232336,-0.0011519172694534063,-0.0005585053586401045
1685549008030777300,8.61877734375,0.0009250245057046413,0.0006632251315750182,0.006562437862157822
1685549008050775600,8.638775634765626,0.0021293016616255045,0.0006632251315750182,0.005829399451613426
1685549008070775600,8.658775634765625,-0.0027576202992349863,0.0016057029133662581,0.0020769417751580477
1685549008090775600,8.678775634765625,-0.0008726646192371845,0.0014660765882581472,0.0005410520825535059
1685549008110775600,8.698775634765624,0.003281218931078911,-0.0008377580670639873,-0.00040142572834156454
1685549008130775600,8.718775634765626,0.003036872949451208,-0.0012217304902151227,0.0077667152509093285
1685549008150775600,8.738775634765625,0.004642575979232788,-0.004904375411570072,-0.004939281847327948
1685549008170777300,8.75877734375,0.004974188283085823,0.00038397242315113544,-0.0012915435945615172
1685549008190775600,8.778775634765625,0.00024434609804302454,0.0021642083302140236,-0.0015533430268988013
1685549008210777300,8.79877734375,-0.00205948855727911,-0.00047123889089562,0.006213372107595205
1685549008230777300,8.81877734375,-0.010035643354058266,-0.002827433403581381,0.003857177682220936
1685549008250775600,8.838775634765625,0.006370451766997576,-0.004328416660428047,-0.02413790300488472
1685549008270775600,8.858775634765625,-0.0028797932900488377,-0.0007504915702156723,-0.01136209350079298
1685549008290775600,8.878775634765624,-0.005654866807162762,0.00708603672683239,0.01979203335940838
1685549008310775600,8.898775634765625,0.0046774824149906635,-0.0002617993741296232,0.006265731994062662
1685549008330791400,8.91879150390625,0.01731366664171219,-0.000017453292457503267,-0.000052359879191499203
1685549008350777300,8.93877734375,0.012810716405510902,-0.0023911010939627886,-0.01226966455578804
1685549008370775600,8.958775634765624,0.008709193207323551,-0.0024085543118417263,-0.003577925032004714
1685549008390777300,8.97877734375,0.004241149872541428,-0.0009773843921720982,0.006457718089222908
1685549008410775600,8.998775634765625,0.009128072299063206,-0.00047123889089562,0.004834562074393034
1685549008430775600,9.018775634765625,-0.014364060014486313,0.00663225119933486,-0.0023911010939627886
1685549008450777300,9.03877734375,-0.026965336874127388,0.0023911010939627886,-0.017296213656663895
1685549008470775600,9.058775634765626,-0.011397000402212143,0.005358160939067602,0.007208209950476885
1685549008490775600,9.078775634765625,-0.004852015525102615,0.0012391837080940604,0.013596114702522755
1685549008510775600,9.098775634765625,0.01005309633910656,-0.000017453292457503267,-0.0016057029133662581
1685549008530775600,9.118775634765624,0.011187560856342316,0.0028448866214603186,-0.009756390936672688
1685549008550777300,9.13877734375,-0.006824237294495106,0.006806783843785524,-0.030316369608044624
1685549008570775600,9.158775634765625,-0.024905849248170853,0.006841690745204687,-0.0529881976544857
1685549008590777300,9.17877734375,-0.03691371530294418,0.011257373727858067,-0.00923279207199812
1685549008610775600,9.198775634765624,-0.022026054561138153,0.005916666239500046,0.026302112266421318
1685549008630777300,9.21877734375,0.002321287989616394,-0.0019547687843441963,0.013805554248392582
1685549008650775600,9.238775634765625,0.015690509229898453,-0.0031939526088535786,-0.014067353680729866
1685549008670775600,9.258775634765625,0.018832102417945862,-0.002827433403581381,-0.03757693991065025
1685549008690777300,9.27877734375,0.00029670598451048136,-0.0017104226863011718,-0.042359139770269394
1685549008710775600,9.298775634765626,-0.007225662935525179,0.006318091880530119,-0.008709193207323551
1685549008730775600,9.318775634765625,-0.004188789986073971,0.00518362782895565,0.0013788101496174932
1685549008750775600,9.338775634765625,-0.003176499158143997,-0.0009773843921720982,-0.005410520825535059
1685549008770777300,9.35877734375,-0.0006457717972807586,-0.001029744278639555,-0.0021293016616255045
1685549008790777300,9.37877734375,0.0002617993741296232,-0.00015707963029854,-0.0003316125657875091
1685549008810775600,9.398775634765625,-0.0050090947188436985,-0.0016406094655394554,0.0010995573829859495
1685549008830775600,9.418775634765625,-0.00003490658491500653,0.00027925267932005227,-0.0002617993741296232
1685549008850777300,9.43877734375,-0.005113814491778612,-0.0018151424592360854,-0.005340707488358021
1685549008870786600,9.45878662109375,-0.002600540639832616,0.0007853981805965304,0.004974188283085823
1685549008890775600,9.478775634765626,-0.00724311638623476,0.004886921960860491,0.006475171539932489
1685549008910775600,9.498775634765625,-0.012880530208349228,0.004084070213139057,-0.012077677994966507
1685549008930775600,9.518775634765625,-0.011135200969874859,0.006597344763576984,-0.020385446026921272
1685549008950775600,9.538775634765624,-0.002146754879504442,0.004747295752167702,-0.012566370889544487
1685549008970777300,9.55877734375,0.0016406094655394554,-0.0012391837080940604,-0.005986479111015797
1685549008990777300,9.57877734375,0.010873401537537575,-0.00017453292093705386,-0.006824237294495106
1685549009010777300,9.59877734375,0.0019373154500499368,0.0037350046914070845,-0.01713913306593895
1685549009030793000,9.61879296875,-0.017575465142726898,0.004345869645476341,-0.026424285024404526
1685549009050775600,9.638775634765626,-0.019984019920229912,0.001343903481028974,-0.009110618382692337
1685549009070833400,9.65883349609375,-0.0031415927223861217,0.0003665191470645368,-0.0015707963611930609
1685549009090777300,9.67877734375,0.0014660765882581472,-0.00143117003608495,-0.023753931745886803
1685549009110775600,9.698775634765624,-0.005323254037648439,0.0012042771559208632,-0.03207915276288986
1685549009130775600,9.718775634765626,-0.0009599310578778386,0.0005585053586401045,-0.018727382645010948
1685549009150775600,9.738775634765625,0.0039618974551558495,0.00041887903353199363,0.002478367416188121
1685549009170775600,9.758775634765625,0.00020943951676599681,0.0009075712296180427,0.005899212788790464
1685549009190775600,9.778775634765625,-0.007906341925263405,0.0015358896926045418,-0.010018189437687397
1685549009210777300,9.79877734375,-0.010402162559330463,0.0009948377264663577,-0.018325956538319588
1685549009230775600,9.818775634765625,-0.007033676840364933,0.0021642083302140236,-0.006475171539932489
1685549009250777300,9.83877734375,-0.003176499158143997,0.0033859387040138245,0.00411897711455822
1685549009270775600,9.858775634765625,-0.005061454605311155,0.002478367416188121,-0.007819075137376785
1685549009290775600,9.878775634765624,0.0008726646192371845,-0.0015533430268988013,-0.028937559574842453
1685549009310775600,9.898775634765625,0.01211258489638567,-0.0005585053586401045,-0.027838001027703285
1685549009330777300,9.91877734375,0.006894050631672144,-0.00008726646046852693,-0.012967796064913273
1685549009350775600,9.938775634765625,0.0008377580670639873,0.00017453292093705386,-0.0029845130629837513
1685549009370775600,9.958775634765624,0.00411897711455822,-0.0008552113431505859,0.0024260077625513077
1685549009390775600,9.978775634765626,0.004468042869120836,-0.0009773843921720982,0.0011519172694534063
1685549009410777300,9.99877734375,-0.0005585053586401045,-0.0015533430268988013,-0.013700834475457668
1685549009430775600,10.018775634765625,0.003630284918472171,-0.0009075712296180427,-0.019547687843441963
1685549009450777300,10.03877734375,0.001745329238474369,-0.002722713630646467,-0.012496557086706161
1685549009470777300,10.05877734375,0.00205948855727911,0,-0.0005759586347267032
1685549009490775600,10.078775634765625,0.012496557086706161,-0.0003665191470645368,0.006422811653465033
1685549009510775600,10.098775634765625,0.01589994877576828,0.0008726646192371845,0.0047996556386351585
1685549009530775600,10.118775634765624,0.01864011585712433,0.0031241392716765404,-0.00012217304902151227
1685549009550777300,10.13877734375,0.0010122909443452954,0.007923794910311699,-0.010594148188829422
1685549009570775600,10.158775634765625,-0.024609142914414406,0.008412486873567104,-0.027035150676965714
1685549009590775600,10.178775634765625,-0.02759365551173687,0.008604473434388638,-0.0126710906624794
1685549009610775600,10.198775634765624,-0.019565140828490257,0.010349802672863007,0.013700834475457668
1685549009630775600,10.218775634765626,-0.007382742594927549,0.0057246801443398,0.00808087456971407
1685549009650775600,10.238775634765625,0.005305801052600145,0.004956734832376242,-0.016580628231167793
1685549009670775600,10.258775634765625,-0.00020943951676599681,0.00502654816955328,-0.03661700710654259
1685549009690777300,10.27877734375,-0.009581857360899448,0.00457276264205575,-0.03148574009537697
1685549009710775600,10.298775634765626,-0.009162978269159794,0.005846852902323008,-0.007173303049057722
1685549009730791400,10.31879150390625,0.0038920841179788113,0.0007330382941290736,0.011344640515744686
1685549009750777300,10.33877734375,0.03125884756445885,-0.004450589418411255,0.02923426404595375
1685549009770777300,10.35877734375,0.03324852138757706,-0.003403391921892762,0.020664697512984276
1685549009790775600,10.378775634765624,0.0062831854447722435,-0.002740166848525405,-0.011187560856342316
1685549009810775600,10.398775634765625,-0.009250245057046413,0.0031415927223861217,-0.04221951588988304
1685549009830775600,10.418775634765625,-0.03286454826593399,-0.0008552113431505859,-0.02214822731912136
1685549009850777300,10.43877734375,-0.02024581842124462,-0.0012042771559208632,0.03867649659514427
1685549009870775600,10.458775634765624,0.0045378562062978745,-0.014364060014486313,0.051487211138010025
1685549009890775600,10.478775634765626,0.046041786670684814,-0.020367993041872978,0.03344050794839859
1685549009910775600,10.498775634765625,0.06627015024423599,-0.022218041121959686,0.01563815027475357
1685549009930775600,10.518775634765625,0.046670105308294296,-0.017924530431628227,0.006056292448192835
1685549009950775600,10.538775634765624,0.02028072625398636,-0.006405358202755451,0.02209586836397648
1685549009970775600,10.558775634765626,-0.00045378561480902135,0.00125663704238832,0.030229102820158005
1685549009990777300,10.57877734375,-0.017837265506386757,0.004241149872541428,0.014381512999534607
1685549010010777300,10.59877734375,-0.028099801391363144,0.006492624990642071,0.005829399451613426
1685549010030777300,10.61877734375,-0.06742206960916519,0.025150194764137268,0.005654866807162762
1685549010050777300,10.63877734375,-0.08925613760948181,0.03726277872920036,-0.06670648604631424
1685549010070777300,10.65877734375,-0.04651302471756935,0.007417649496346712,-0.1077042669057846
1685549010090777300,10.67877734375,0.037053339183330536,-0.020402899011969566,-0.014835298992693424
1685549010110775600,10.698775634765624,0.14193017780780792,-0.011885692365467548,0.13702580332756042
1685549010130775600,10.718775634765626,0.1578126698732376,-0.004188789986073971,0.18266615271568298
1685549010150777300,10.73877734375,0.057334065437316895,0.006684611085802317,0.07756242901086807
1685549010170775600,10.758775634765625,-0.04939281940460205,0.0200189258903265,-0.06906268000602722
1685549010190775600,10.778775634765625,-0.09571385383605957,-0.0005410520825535059,-0.13812536001205444
1685549010210775600,10.798775634765626,-0.0636521577835083,-0.02494075521826744,-0.07911577820777893
1685549010230777300,10.81877734375,0.030490901321172714,-0.002775073517113924,0.10737265646457672
1685549010250775600,10.838775634765625,0.0685390830039978,0.0005585053586401045,0.1803099662065506
1685549010270777300,10.85877734375,0.06133086979389191,-0.013840461149811745,0.06546729803085327
1685549010290775600,10.878775634765624,0.029042279347777367,-0.01129228062927723,-0.03968878835439682
1685549010310777300,10.89877734375,0.026546457782387733,-0.019861847162246704,-0.05850343778729439
1685549010330775600,10.918775634765625,0.04197516664862633,-0.036826446652412415,-0.015009831637144089
1685549010350777300,10.93877734375,0.08138470351696014,-0.03153809905052185,0.07204718887805939
1685549010370777300,10.95877734375,0.062430426478385925,-0.025708699598908424,0.09025097638368607
1685549010390777300,10.97877734375,-0.0008901178953237832,-0.008412486873567104,0.025935592129826546
1685549010410777300,10.99877734375,-0.030141836032271385,-0.003857177682220936,-0.05469861999154091
1685549010430791400,11.01879150390625,-0.006649704650044441,-0.00411897711455822,-0.0596204474568367
1685549010450777300,11.03877734375,0.042184606194496155,-0.006387905217707157,-0.01970476657152176
1685549010470775600,11.058775634765626,0.062203533947467804,0.0006632251315750182,0.03157300502061844
1685549010490777300,11.07877734375,0.023195425048470497,0.005881759338080883,0.026319565251469612
1685549010510777300,11.09877734375,-0.006300638429820538,0.012304571457207203,-0.027349309995770454
1685549010530775600,11.118775634765624,-0.052290063351392746,0.016598081216216087,-0.06602580845355988
1685549010550775600,11.138775634765626,-0.0377340167760849,0.017348572611808777,-0.056810468435287476
1685549010570775600,11.158775634765625,-0.019285887479782104,0.009529497474431992,-0.05820672959089279
1685549010590775600,11.178775634765625,0.03391174599528313,-0.004712388850748539,-0.028466319665312767
1685549010610777300,11.19877734375,0.06330309063196182,-0.006230825558304787,0.0006806784076616168
1685549010630777300,11.21877734375,0.040282197296619415,0.00548033369705081,0.00038397242315113544
1685549010650777300,11.23877734375,0.012077677994966507,0.0037350046914070845,-0.0184306763112545
1685549010670775600,11.258775634765625,-0.01603957638144493,0.010838494636118412,-0.03635520860552788
1685549010690775600,11.278775634765625,-0.012810716405510902,0.0032114058267325163,-0.0763406977057457
1685549010710775600,11.298775634765626,-0.003804817795753479,-0.0017976891249418259,-0.08087855577468872
1685549010730775600,11.318775634765625,0.006213372107595205,0.000052359879191499203,-0.05394812673330307
1685549010750775600,11.338775634765625,0.04228932783007622,-0.0034732052590698004,-0.005777040030807257
1685549010770775600,11.358775634765625,0.0734609067440033,-0.0016406094655394554,0.02431243658065796
1685549010790775600,11.378775634765624,0.06054547056555748,-0.008918632753193378,-0.00472984230145812
1685549010810777300,11.39877734375,0.07176794111728668,-0.011344640515744686,-0.033457960933446884
1685549010830777300,11.41877734375,0.052778758108615875,-0.008726646192371845,-0.03141592815518379
1685549010850775600,11.438775634765625,0.03782128542661667,-0.004852015525102615,0.007260569836944342
1685549010870775600,11.458775634765624,0.004852015525102615,0.0035953782498836517,0.0262148454785347
1685549010890777300,11.47877734375,-0.02497566118836403,0.008482299745082855,-0.010175269097089767
1685549010910775600,11.498775634765625,-0.02577851340174675,0.0032114058267325163,-0.054908059537410736
1685549010930775600,11.518775634765625,0.009721484035253525,-0.004485496319830418,-0.03202679008245468
1685549010950775600,11.538775634765624,0.047542769461870193,-0.00502654816955328,0.028134707361459732
1685549010970775600,11.558775634765626,0.06613052636384964,0.0036651913542300463,0.073164202272892
1685549010990777300,11.57877734375,0.037454765290021896,0.012793263420462608,0.035499997437000275
1685549011010775600,11.598775634765625,-0.0019198621157556772,0.011990412138402462,-0.04885176569223404
1685549011030777300,11.61877734375,-0.027925267815589905,0.0062831854447722435,-0.08260643482208252
1685549011050775600,11.638775634765626,-0.019687313586473465,0.01722639985382557,-0.028117254376411438
1685549011070775600,11.658775634765625,-0.004764748737215996,0.009791296906769276,-0.010489428415894508
1685549011090775600,11.678775634765625,0.011082841083407402,0.00609119888395071,-0.020525071769952774
1685549011110777300,11.69877734375,0.029600784182548523,0.004834562074393034,-0.01788962446153164
1685549011130791400,11.71879150390625,0.03537782281637192,0.0012740903766825795,-0.005235987715423107
1685549011150777300,11.73877734375,0.04911356419324875,-0.0004886921960860491,0.022078415378928185
1685549011170777300,11.75877734375,0.06874851882457733,-0.0011868239380419254,0.042097341269254684
1685549011190775600,11.778775634765625,0.04965461790561676,-0.0016057029133662581,0.023998277261853218
1685549011210775600,11.798775634765626,0.014905111864209175,-0.0006806784076616168,-0.020647244527935982
1685549011230777300,11.81877734375,0.0024958208668977022,-0.004363323096185923,-0.05054473504424095
1685549011250777300,11.83877734375,-0.008761553093791008,-0.004345869645476341,-0.03220132365822792
1685549011270775600,11.858775634765625,0.016022123396396637,-0.01012290921062231,-0.0012042771559208632
1685549011290775600,11.878775634765624,0.04597197100520134,-0.014224433340132236,0.03663446009159088
1685549011310775600,11.898775634765625,0.06813765317201614,-0.007679448463022709,0.05464625731110573
1685549011330777300,11.91877734375,0.058485984802246094,-0.004310963209718466,0.06881833076477051
1685549011350775600,11.938775634765625,0.020629791542887688,0.003508111694827676,0.05630432069301605
1685549011370777300,11.95877734375,-0.010978121310472488,0.014521139673888683,-0.010698867961764336
1685549011390775600,11.978775634765626,-0.03544763848185539,0.008883725851774216,-0.07209955155849457
1685549011410775600,11.998775634765625,-0.02661627158522606,0.00013962633966002613,-0.05815437063574791
1685549011430775600,12.018775634765625,-0.006370451766997576,-0.00006981316983001307,0.004450589418411255
1685549011450777300,12.03877734375,0.027035150676965714,-0.0028797932900488377,0.0383099764585495
1685549011470777300,12.05877734375,0.03977605327963829,-0.0018675023457035422,0.02497566118836403
1685549011490777300,12.07877734375,0.03614576905965805,0.004014257341623306,0.01218239776790142
1685549011510775600,12.098775634765625,0.022776545956730843,0.007208209950476885,0.015201817266643047
1685549011530775600,12.118775634765624,-0.0018151424592360854,0.01251401100307703,0.0028448866214603186
1685549011550775600,12.138775634765626,-0.026825711131095886,0.009162978269159794,-0.04658283665776253
1685549011570777300,12.15877734375,-0.03735004737973213,0.008953538723289967,-0.06466444581747055
1685549011590777300,12.17877734375,-0.024748768657445908,0.008325220085680485,-0.035639625042676926
1685549011610775600,12.198775634765624,0.01045452244579792,-0.00062831852119416,0.0256388857960701
1685549011630777300,12.21877734375,0.05426228791475296,-0.00617846567183733,0.0636696144938469
1685549011650775600,12.238775634765625,0.09032078832387924,-0.010768681764602661,0.0561646968126297
1685549011670775600,12.258775634765625,0.033737216144800186,-0.001518436474725604,0.010890854522585869
1685549011690775600,12.278775634765625,-0.051574479788541794,0.01448623277246952,-0.06058037653565407
1685549011710777300,12.29877734375,-0.08621926605701447,0.003804817795753479,-0.09637708216905594
1685549011730775600,12.318775634765625,-0.055867988616228104,-0.01532399095594883,-0.06213372200727463
1685549011750775600,12.338775634765625,0.01457349956035614,-0.002740166848525405,-0.01762782596051693
1685549011770775600,12.358775634765625,0.06640977412462234,-0.022130774334073067,-0.006771877408027649
1685549011790775600,12.378775634765624,0.061453044414520264,-0.01595230959355831,-0.0006806784076616168
1685549011810775600,12.398775634765625,0.03136356547474861,-0.006981316953897476,0.0047996556386351585
1685549011830791400,12.41879150390625,-0.002722713630646467,-0.00027925267932005227,0.01532399095594883
1685549011850775600,12.438775634765625,-0.0345575176179409,0.003909537568688393,-0.0013788101496174932
1685549011870777300,12.45877734375,-0.054855696856975555,0.010733774863183498,-0.019477874040603638
1685549011890775600,12.478775634765626,-0.04831071197986603,0.00003490658491500653,-0.06263986974954605
1685549011910775600,12.498775634765625,-0.02666863054037094,-0.009180432185530663,-0.07126179337501526
1685549011930775600,12.518775634765625,0.01837831735610962,-0.0050090947188436985,-0.006352998316287994
1685549011950775600,12.538775634765624,0.043301619589328766,-0.011623892933130264,0.057875119149684906
1685549011970777300,12.55877734375,0.04904375225305557,-0.0050090947188436985,0.063355453312397
1685549011990775600,12.578775634765625,0.04668755829334259,-0.012304571457207203,0.03525565192103386
1685549012010775600,12.598775634765625,-0.0015009831404313445,-0.00010471975838299841,0.01682497374713421
1685549012030777300,12.61877734375,-0.05057964101433754,0.009354964829981327,-0.007923794910311699
1685549012050775600,12.638775634765626,-0.0665319487452507,0.007731808349490166,-0.033423054963350296
1685549012070775600,12.658775634765625,-0.012915436178445816,-0.0033859387040138245,-0.04354596510529518
1685549012090775600,12.678775634765625,0.035499997437000275,-0.01811651699244976,-0.011676252819597721
1685549012110775600,12.698775634765624,0.04740314185619354,-0.0200189258903265,0.037315137684345245
1685549012130775600,12.718775634765626,0.021764256060123444,-0.00708603672683239,0.04864232614636421
1685549012150775600,12.738775634765625,-0.018762288615107536,-0.0011344640515744686,0.04185299575328827
1685549012170775600,12.758775634765625,-0.03321361541748047,0.0030717793852090836,0.03933972120285034
1685549012190775600,12.778775634765625,-0.04071853309869766,0.008412486873567104,0.036128316074609756
1685549012210777300,12.79877734375,-0.03323106840252876,0.00938987173140049,-0.022305307909846306
1685549012230775600,12.818775634765625,-0.05424483120441437,0.0018500490114092827,-0.1111949235200882
1685549012250777300,12.83877734375,-0.04401720315217972,0.005044001620262861,-0.10351547598838806
1685549012270775600,12.858775634765625,-0.02298598550260067,0.01722639985382557,-0.013247049413621426
1685549012290777300,12.87877734375,-0.0002617993741296232,0.012688543647527695,0.08306021988391876
1685549012310775600,12.898775634765625,0.023684117943048477,0.010663961991667747,0.10405652970075607
1685549012330775600,12.918775634765625,0.024015730246901512,0.006911503616720438,0.05925392732024193
1685549012350775600,12.938775634765625,-0.008185594342648983,0.007504915818572044,-0.00376991112716496
1685549012370775600,12.958775634765624,-0.05400048568844795,0.017331119626760483,-0.04473278671503067
1685549012390777300,12.97877734375,-0.06757915019989014,0.021903881803154945,-0.05244714394211769
1685549012410775600,12.998775634765625,-0.036337755620479584,0.009424777701497078,-0.05770058557391167
1685549012430777300,13.01877734375,0.028326693922281265,-0.011536626145243645,-0.04984660446643829
1685549012450775600,13.038775634765624,0.05377359315752983,-0.010314895771443844,0.0408930629491806
1685549012470777300,13.05877734375,0.05363396927714348,-0.005742133129388094,0.12159708887338638
1685549012490777300,13.07877734375,-0.00331612559966743,0.01045452244579792,0.13313370943069458
1685549012510775600,13.098775634765625,-0.006579891312867403,0.015009831637144089,0.05284857004880905
1685549012530793000,13.11879296875,-0.07415904104709625,0.0014660765882581472,-0.10040879249572754
1685549012550775600,13.138775634765626,-0.08529423922300339,0.007051130291074514,-0.12424998730421066
1685549012570777300,13.15877734375,-0.07456046342849731,0.01441641990095377,-0.05511749908328056
1685549012590777300,13.17877734375,-0.03176499158143997,0.012566370889544487,0.016004668548703194
1685549012610775600,13.198775634765624,0.021502455696463585,0.010716321878135204,0.027715828269720078
1685549012630775600,13.218775634765626,0.012234757654368877,0.011728612706065178,0.002949606394395232
1685549012650775600,13.238775634765625,-0.01581268385052681,0.015027284622192383,-0.0263544712215662
1685549012670777300,13.25877734375,-0.041521381586790085,0.02249729447066784,-0.03145083412528038
1685549012690775600,13.278775634765625,-0.06716027110815048,0.03707079216837883,-0.0030194194987416267
1685549012710775600,13.298775634765626,-0.04490732029080391,0.06604325771331787,-0.009250245057046413
1685549012730775600,13.318775634765625,-0.003979350905865431,0.030490901321172714,-0.13639748096466064
1685549012750777300,13.33877734375,0.06244787946343422,0.01171115878969431,-0.07583455741405487
1685549012770775600,13.358775634765625,0.09234537184238434,-0.00518362782895565,0.11508700996637344
1685549012790777300,13.37877734375,0.09840166568756104,-0.014433872886002064,0.2528283894062042
1685549012810777300,13.39877734375,0.03757693991065025,-0.00830776710063219,0.31902873516082764
1685549012830775600,13.418775634765625,-0.036302849650382996,0.02520255371928215,0.28756043314933777
1685549012850775600,13.438775634765625,-0.07803367078304291,0.01727875880897045,0.05890486389398575
1685549012870775600,13.458775634765624,-0.0774751678109169,-0.019233528524637222,-0.16931438446044922
1685549012890775600,13.478775634765626,-0.004747295752167702,-0.015760323032736778,-0.1852317899465561
1685549012910775600,13.498775634765625,0.0671079084277153,-0.005532693583518267,-0.0535816065967083
1685549012930775600,13.518775634765625,0.06042329967021942,-0.007260569836944342,0.057875119149684906
1685549012950775600,13.538775634765624,-0.009075712412595749,0.00945968460291624,0.04591961205005646
1685549012970775600,13.558775634765626,-0.05611233413219452,0.016179202124476433,-0.08333947509527206
1685549012990777300,13.57877734375,-0.06031857803463936,0.004241149872541428,-0.14868459105491638
1685549013010777300,13.59877734375,-0.024417156353592873,0.0008901178953237832,-0.08169886469841003
1685549013030777300,13.61877734375,0.020786872133612633,0.01342158205807209,0.022427480667829514
1685549013050777300,13.63877734375,0.035901423543691635,0.00898844562470913,0.03480186685919762
1685549013070777300,13.65877734375,0.010279988870024681,0.003036872949451208,-0.0028797932900488377
1685549013090775600,13.678775634765625,0.030839968472719193,-0.007923794910311699,0.015341443940997124
1685549013110775600,13.698775634765624,0.08566076308488846,-0.029565878212451935,0.07850491255521774
1685549013130775600,13.718775634765626,0.0786270797252655,-0.021048670634627342,0.12370893359184265
1685549013150775600,13.738775634765625,0.02117084339261055,-0.005899212788790464,0.06887069344520569
1685549013170777300,13.75877734375,-0.06764896214008331,0.0028448866214603186,-0.07422885298728943
1685549013190777300,13.77877734375,-0.08621926605701447,-0.013281955383718014,-0.16549211740493774
1685549013210777300,13.79877734375,-0.03906046971678734,-0.02453932911157608,-0.11198032647371292
1685549013230791400,13.81879150390625,0.062203533947467804,-0.013055062852799892,0.005742133129388094
1685549013250775600,13.838775634765625,0.10906562209129333,-0.019477874040603638,0.08415977656841278
1685549013270775600,13.858775634765625,0.04438372328877449,0.003944444004446268,0.09843657165765762
1685549013290775600,13.878775634765624,-0.03150319308042526,0.016545720398426056,0.010489428415894508
1685549013310777300,13.89877734375,-0.06688101589679718,0.008360126987099648,-0.07508406043052673
1685549013330775600,13.918775634765625,-0.039043016731739044,0.005113814491778612,-0.057473693042993546
1685549013350777300,13.93877734375,0.01886700838804245,-0.0011868239380419254,-0.03220132365822792
1685549013370777300,13.95877734375,0.04113740846514702,-0.00617846567183733,-0.025673793628811836
1685549013390775600,13.978775634765626,0.046966809779405594,-0.0025830871891230345,0.017732545733451843
1685549013410777300,13.99877734375,0.03462733328342438,-0.0016755161341279745,0.06428047269582748
1685549013430777300,14.01877734375,0.01794198527932167,0.0017976891249418259,0.07007496803998947
1685549013450777300,14.03877734375,0.0017278759041801095,0.003089232835918665,0.020717058330774307
1685549013470777300,14.05877734375,-0.029338983818888664,0.0011693706037476659,-0.047054074704647064
1685549013490777300,14.07877734375,-0.04916592314839363,0.0019896754529327154,-0.0817861258983612
1685549013510775600,14.098775634765625,-0.03902556374669075,-0.0005410520825535059,-0.06743951886892319
1685549013530775600,14.118775634765624,0.0006981316837482154,-0.01151917316019535,-0.01776745170354843
1685549013550775600,14.138775634765626,0.05784020945429802,-0.015585790388286114,0.05838126316666603
1685549013570777300,14.15877734375,0.06939429044723511,-0.005777040030807257,0.08318239450454712
1685549013590775600,14.178775634765625,0.015289084054529667,0.005532693583518267,0.02439970336854458
1685549013610777300,14.19877734375,-0.045029494911432266,0.01136209350079298,-0.05726425349712372
1685549013630775600,14.218775634765626,-0.07152359187602997,0.011990412138402462,-0.0708429142832756
1685549013650777300,14.23877734375,-0.049933869391679764,0.016772614791989326,-0.023631757125258446
1685549013670775600,14.258775634765625,-0.014206980355083942,0.0216071754693985,0.009564404375851154
1685549013690775600,14.278775634765625,0.02267182618379593,0.012828170321881771,-0.004363323096185923
1685549013710777300,14.29877734375,0.03211405873298645,0.003630284918472171,-0.009843656793236732
1685549013730775600,14.318775634765625,0.0316777266561985,-0.008674286305904388,-0.01342158205807209
1685549013750775600,14.338775634765625,0.0034382985904812813,-0.0011344640515744686,-0.01242674421519041
1685549013770775600,14.358775634765625,-0.017732545733451843,0.006108652334660292,0.004380776546895504
1685549013790775600,14.378775634765624,-0.031206486746668816,0.009250245057046413,0.013299409300088882
1685549013810775600,14.398775634765625,-0.014905111864209175,0.005986479111015797,-0.0033859387040138245
1685549013830777300,14.41877734375,-0.006806783843785524,0.0007504915702156723,-0.02595304511487484
1685549013850777300,14.43877734375,0.0073129297234117985,-0.0003490658418741077,-0.030455995351076126
1685549013870777300,14.45877734375,0.007714355364441872,0.003089232835918665,-0.014940018765628338
1685549013890777300,14.47877734375,0.0008203047327697277,0.0039618974551558495,0.0055850534699857235
1685549013910777300,14.49877734375,-0.019495327025651932,0.009930923581123352,0.01621410809457302
1685549013930793000,14.51879296875,-0.015795229002833366,0.009738937020301819,0.014049900695681572
1685549013950777300,14.53877734375,-0.004363323096185923,0.009686577133834362,-0.0033684854861348867
1685549013970775600,14.558775634765626,0.012915436178445816,0.007487462367862463,-0.023684117943048477
1685549013990775600,14.578775634765625,0.09353219717741013,-0.014660765416920185,-0.01851794309914112
1685549014010775600,14.598775634765625,0.1650732457637787,-0.04164355620741844,0.07848745584487915
1685549014030775600,14.618775634765624,0.18444639444351196,-0.05572836101055145,0.19826939702033997
1685549014050775600,14.638775634765626,0.0823795422911644,-0.01507964450865984,0.20917770266532898
1685549014070777300,14.65877734375,-0.13920746743679047,0.014311700128018856,0.07126179337501526
1685549014090777300,14.67877734375,-0.2292664498090744,0.0342782661318779,-0.16468927264213562
1685549014110777300,14.69877734375,-0.24413666129112244,-0.025132741779088974,-0.35208526253700256
1685549014130777300,14.71877734375,-0.05913175642490387,-0.02338741160929203,-0.23752185702323914
1685549014150777300,14.73877734375,0.20546016097068787,-0.052324969321489334,0.07623597979545593
1685549014170777300,14.75877734375,0.30225610733032227,-0.019914206117391586,0.36390113830566406
1685549014190777300,14.77877734375,0.23497366905212402,0.03862413763999939,0.4056145250797272
1685549014210777300,14.79877734375,-0.024260075762867928,0.0437903106212616,0.1604306697845459
1685549014230777300,14.81877734375,-0.28876471519470215,0.04939281940460205,-0.15337952971458435
1685549014250775600,14.838775634765625,-0.4809952974319458,0.04445353522896767,-0.3306177258491516
1685549014270775600,14.858775634765625,-0.4188266694545746,0.0038920841179788113,-0.3573910593986511
1685549014290775600,14.878775634765624,-0.18987436592578888,-0.003263765713199973,-0.2393893599510193
1685549014310775600,14.898775634765625,0.09552186727523804,0.002460914198309183,0.024609142914414406
1685549014330777300,14.91877734375,0.32414254546165466,-0.002286381321027875,0.2811201810836792
1685549014350775600,14.938775634765625,0.28014278411865234,0.0256388857960701,0.34180527925491333
1685549014370775600,14.958775634765624,0.035587262362241745,0.03206169977784157,0.1586853414773941
1685549014390775600,14.978775634765626,-0.1471661627292633,0.03415609151124954,-0.10718066990375519
1685549014410775600,14.998775634765625,-0.2974739074707031,0.008621926419436932,-0.24862214922904968
1685549014430775600,15.018775634765625,-0.2292838990688324,-0.03516838327050209,-0.18844319880008698
1685549014450775600,15.038775634765624,-0.04567526653409004,-0.009424777701497078,-0.04084070399403572
1685549014470775600,15.058775634765626,0.090425506234169,-0.025900686159729958,0.012897983193397522
1685549014490777300,15.07877734375,0.19666369259357452,-0.05695009231567383,0.03361504152417183
1685549014510775600,15.098775634765625,0.20327849686145782,-0.03911282867193222,0.13946926593780518
1685549014530775600,15.118775634765624,0.12074187397956848,0.005445427261292934,0.22701497375965118
1685549014550775600,15.138775634765626,-0.009162978269159794,-0.0067544239573180676,0.13098695874214172
1685549014570777300,15.15877734375,-0.09775589406490326,0.0010821041651070118,-0.04553563892841339
1685549014590775600,15.178775634765625,-0.09539970010519028,0.001483529806137085,-0.10435323417186737
1685549014610775600,15.198775634765624,-0.08967501670122147,0.00029670598451048136,-0.05523966997861862
1685549014630791400,15.21879150390625,0.016179202124476433,0.00251327408477664,0.0119555052369833
1685549014650775600,15.238775634765625,0.06773623079061508,-0.0009599310578778386,0.02843141369521618
1685549014670777300,15.25877734375,0.022689281031489372,0.0015358896926045418,-0.03522074595093727
1685549014690775600,15.278775634765625,-0.016196655109524727,0.005462880712002516,-0.06120869517326355
1685549014710777300,15.29877734375,0.010070549324154854,-0.0057246801443398,0.005777040030807257
1685549014730775600,15.318775634765625,0.07908086478710175,-0.017959438264369965,0.12596040964126587
1685549014750775600,15.338775634765625,0.09882054477930069,-0.0023911010939627886,0.19200366735458374
1685549014770777300,15.35877734375,0.030106930062174797,0.005201081279665232,0.10388199985027313
1685549014790775600,15.378775634765624,-0.07754497975111008,0.014940018765628338,-0.07508406043052673
1685549014810775600,15.398775634765625,-0.10121164470911026,0.006370451766997576,-0.19605283439159393
1685549014830775600,15.418775634765625,-0.06405358016490936,-0.0027925267349928617,-0.17261306941509247
1685549014850775600,15.438775634765625,-0.007051130291074514,-0.008290314115583897,-0.036075957119464874
1685549014870777300,15.45877734375,0.08286823332309723,-0.005497787147760391,0.1428726464509964
1685549014890777300,15.47877734375,0.11526153981685638,-0.0026179938577115536,0.1952499896287918
1685549014910775600,15.498775634765625,0.05546656250953674,0.0015009831404313445,0.1253320872783661
1685549014930775600,15.518775634765625,-0.008604473434388638,-0.0008377580670639873,-0.001745329238474369
1685549014950775600,15.538775634765624,-0.1008276715874672,0.021380282938480377,-0.08630653470754623
1685549014970775600,15.558775634765626,-0.1391201913356781,0.0246265958994627,-0.10548769682645798
1685549014990777300,15.57877734375,-0.08260643482208252,0.007941247895359993,-0.11468558758497238
1685549015010777300,15.59877734375,-0.014800392091274261,0.0032463124953210354,-0.08014551550149918
1685549015030775600,15.618775634765624,0.006387905217707157,0.002722713630646467,-0.03047344833612442
1685549015050775600,15.638775634765626,-0.009669124148786068,0.010314895771443844,0.01665044017136097
1685549015070777300,15.65877734375,-0.006422811653465033,0.019320795312523842,0.04731587693095207
1685549015090775600,15.678775634765625,0.016772614791989326,0.01679006777703762,0.047019168734550476
1685549015110777300,15.69877734375,0.012479104101657867,0.006719517521560192,0.011623892933130264
1685549015130775600,15.718775634765626,-0.011658798903226852,0.02860594540834427,0.0006457717972807586
1685549015150775600,15.738775634765625,-0.054332099854946136,0.027838001027703285,-0.0371580608189106
1685549015170775600,15.758775634765625,-0.06871361285448074,0.03056071512401104,-0.07117452472448349
1685549015190775600,15.778775634765625,-0.033597588539123535,0.014206980355083942,-0.06321582198143005
1685549015210775600,15.798775634765626,-0.03651228919625282,0.014800392091274261,-0.03906046971678734
1685549015230775600,15.818775634765625,-0.011152653954923153,0.01186823844909668,0.010698867961764336
1685549015250775600,15.838775634765625,0.01958259381353855,0.002478367416188121,0.049637164920568466
1685549015270777300,15.85877734375,0.04269075393676758,-0.008848818950355053,0.06876597553491592
1685549015290777300,15.87877734375,0.06351253390312195,-0.0005061454721726477,0.06977826356887817
1685549015310775600,15.898775634765625,0.030839968472719193,-0.010192723013460636,0.038432151079177856
1685549015330791400,15.91879150390625,-0.018081611022353172,-0.0008901178953237832,0.008674286305904388
1685549015350775600,15.938775634765625,-0.08084364980459213,0.014870204962790012,-0.009128072299063206
1685549015370775600,15.958775634765624,-0.13072516024112701,0.02727949619293213,-0.023090705275535583
1685549015390775600,15.978775634765626,-0.1013861745595932,0.03420845419168472,-0.039933133870363235
1685549015410775600,15.998775634765625,-0.020437804982066154,0.018064158037304878,-0.016179202124476433
1685549015430777300,16.01877734375,0.057560957968235016,-0.003001966280862689,0.00938987173140049
1685549015450775600,16.038775634765624,0.06997025012969971,-0.004607669077813625,0.021764256060123444
1685549015470775600,16.058775634765624,0.036477379500865936,-0.0026529005263000727,0.03783873841166496
1685549015490777300,16.07877734375,-0.03626793995499611,0.007941247895359993,0.04387757554650307
1685549015510775600,16.098775634765627,-0.10285225510597229,0.016580628231167793,-0.002809980185702443
1685549015530775600,16.118775634765626,-0.11013027280569077,0.020141098648309708,-0.05373868718743324
1685549015550775600,16.138775634765626,-0.0988030880689621,0.01136209350079298,-0.10653489828109741
1685549015570775600,16.158775634765625,-0.05497787147760391,0.003490658476948738,-0.12836895883083344
1685549015590775600,16.178775634765625,0.0075747291557490826,-0.0030717793852090836,-0.07852236181497574
1685549015610775600,16.198775634765624,0.07166321575641632,-0.009093165397644043,0.03689625859260559
1685549015630775600,16.218775634765624,0.08599237352609634,-0.00678933085873723,0.10273008048534393
1685549015650775600,16.238775634765624,0.045378562062978745,-0.0026703537441790104,0.10838494449853897
1685549015670777300,16.25877734375,0.006492624990642071,0.003228859044611454,0.10669197887182236
1685549015690775600,16.278775634765626,-0.030351275578141212,-0.007871435023844242,0.048432886600494385
1685549015710775600,16.298775634765626,-0.03490658476948738,-0.012985249981284142,-0.022828906774520874
1685549015730777300,16.31877734375,-0.02431243658065796,-0.016755159944295883,-0.06921976059675217
1685549015750775600,16.338775634765625,-0.01687733456492424,-0.025499260053038597,-0.11772245913743973
1685549015770775600,16.358775634765625,0.005393067374825478,-0.045553091913461685,-0.10337585210800171
1685549015790775600,16.378775634765624,0.03445279970765114,-0.031084313988685608,0.009337511844933033
1685549015810775600,16.398775634765624,0.0659559890627861,-0.034173548221588135,0.09316567331552505
1685549015830775600,16.418775634765623,0.05311036854982376,-0.023020893335342407,0.12486085295677185
1685549015850775600,16.438775634765626,0.032882001250982285,-0.004625122528523207,0.11683233827352524
1685549015870775600,16.458775634765626,-0.044977135956287384,0.013892821036279202,0.012496557086706161
1685549015890775600,16.478775634765626,-0.08915141969919205,0.014521139673888683,-0.1316327303647995
1685549015910775600,16.498775634765625,-0.09810495376586914,0.014364060014486313,-0.15912166237831116
1685549015930777300,16.51877734375,-0.03269001841545105,0.003944444004446268,-0.1013687252998352
1685549015950777300,16.53877734375,0.03787364438176155,-0.0068765971809625626,-0.013980086892843246
1685549015970777300,16.55877734375,0.08716174215078354,-0.009372417815029621,0.10318386554718018
1685549015990775600,16.578775634765623,0.08543386310338974,-0.006143558770418167,0.14765486121177673
1685549016010775600,16.598775634765627,0.0685565322637558,-0.0034208453726023436,0.1425410360097885
1685549016030791400,16.61879150390625,0.04082325100898743,-0.0033684854861348867,0.10997319221496582
1685549016050777300,16.63877734375,0.02033308520913124,-0.01802925020456314,-0.0012217304902151227
1685549016070777300,16.65877734375,-0.03623303398489952,-0.005358160939067602,-0.07304202765226364
1685549016090777300,16.67877734375,-0.06742206960916519,-0.0003316125657875091,-0.11569787561893463
1685549016110777300,16.69877734375,-0.03885103017091751,-0.017645278945565224,-0.12081169337034225
1685549016130777300,16.71877734375,0.028797931969165802,-0.025987952947616577,0.006492624990642071
1685549016150777300,16.73877734375,0.09293878078460693,-0.01855284906923771,0.1555437445640564
1685549016170777300,16.75877734375,0.11513937264680862,-0.007138396613299847,0.16913986206054688
1685549016190775600,16.778775634765626,0.06703809648752213,-0.0080634206533432,0.08089601248502731
1685549016210775600,16.798775634765626,0.003909537568688393,-0.0008203047327697277,-0.032183870673179626
1685549016230775600,16.818775634765625,-0.04850269854068756,0.003089232835918665,-0.1160643920302391
1685549016250775600,16.838775634765625,-0.0616450272500515,0.004694935865700245,-0.09768607467412949
1685549016270775600,16.858775634765625,-0.010245082899928093,0.0005235987482592463,-0.03029891662299633
1685549016290775600,16.878775634765624,0.025586526840925217,0.0016057029133662581,0.020402899011969566
1685549016310775600,16.898775634765624,0.03675663471221924,-0.0008901178953237832,-0.00062831852119416
1685549016330775600,16.918775634765623,-0.018884463235735893,0.008866272866725922,-0.036023594439029694
1685549016350777300,16.93877734375,0.0027925267349928617,0.004084070213139057,-0.008203047327697277
1685549016370775600,16.958775634765626,0.039095375686883926,-0.007871435023844242,0.020315632224082947
1685549016390775600,16.978775634765626,0.09334021061658859,-0.022218041121959686,0.037489671260118484
1685549016410775600,16.998775634765625,0.07759733498096466,-0.021380282938480377,0.00024434609804302454
1685549016430775600,17.018775634765625,0.03654719516634941,-0.011990412138402462,-0.001518436474725604
1685549016450775600,17.038775634765624,-0.012601276859641075,-0.0026703537441790104,0.006073745898902416
1685549016470775600,17.058775634765624,-0.059777528047561646,0.0002617993741296232,-0.026302112266421318
1685549016490777300,17.07877734375,-0.0645073652267456,0.00457276264205575,-0.04499458894133568
1685549016510775600,17.098775634765627,-0.042324233800172806,0.01120501384139061,-0.033335790038108826
1685549016530777300,17.11877734375,0.012217304669320583,0.002478367416188121,-0.005916666239500046
1685549016550775600,17.138775634765626,0.0881391242146492,-0.0008726646192371845,0.0685565322637558
1685549016570777300,17.15877734375,0.08503244072198868,0.015690509229898453,0.11597713083028793
1685549016590775600,17.178775634765625,0.07049384713172913,-0.0071907564997673035,0.04078834503889084
1685549016610777300,17.19877734375,-0.00593411922454834,0.010716321878135204,-0.02782054804265499
1685549016630775600,17.218775634765624,-0.08574802428483963,0.021694442257285118,-0.08672541379928589
1685549016650777300,17.23877734375,-0.11180578917264938,0.017610372975468636,-0.09594074636697769
1685549016670775600,17.258775634765627,-0.04558800160884857,0.011170106939971447,-0.03420845419168472
1685549016690775600,17.278775634765626,0.007819075137376785,0.00815068744122982,0.04455825686454773
1685549016710775600,17.298775634765626,0.08405505865812302,0.0075747291557490826,0.06414084881544113
1685549016730791400,17.31879150390625,0.09347983449697495,0.0018151424592360854,0.020612338557839394
1685549016750777300,17.33877734375,0.05359905958175659,-0.0041015236638486385,-0.00563741335645318
1685549016770777300,17.35877734375,0.018273597583174706,-0.003455751808360219,0.028780478984117508
1685549016790775600,17.378775634765624,-0.013281955383718014,0.006702064536511898,0.08710937947034836
1685549016810775600,17.398775634765624,-0.007208209950476885,-0.017907077446579933,-0.005619960371404886
1685549016830777300,17.41877734375,-0.03052580915391445,-0.01940806210041046,-0.0650833249092102
1685549016850777300,17.43877734375,-0.01638864167034626,-0.00663225119933486,-0.04029965400695801
1685549016870777300,17.45877734375,-0.014451325871050358,-0.01837831735610962,-0.03551745042204857
1685549016890777300,17.47877734375,0.044366270303726196,-0.015917403623461723,0.023596851155161858
1685549016910777300,17.49877734375,0.05108578875660896,-0.011780972592532635,0.04473278671503067
1685549016930775600,17.518775634765625,0.02724459022283554,0.007749261800199747,0.041608650237321854
1685549016950775600,17.538775634765624,-0.005096361506730318,0.004764748737215996,0.015620696358382702
1685549016970775600,17.558775634765624,-0.051626838743686676,0.020612338557839394,-0.0009599310578778386
1685549016990775600,17.578775634765623,-0.036686819046735764,0.021851522848010063,-0.030351275578141212
1685549017010777300,17.59877734375,-0.03422590717673302,0.010646508075296879,-0.05469861999154091
1685549017030775600,17.618775634765626,0.007138396613299847,0.016894787549972534,-0.01392772700637579
1685549017050777300,17.63877734375,0.012252211570739746,0.01045452244579792,0.026825711131095886
1685549017070775600,17.658775634765625,0.010000736452639103,0.00830776710063219,0.02330014482140541
1685549017090777300,17.67877734375,-0.0068765971809625626,0.008360126987099648,0.04040437191724777
1685549017110777300,17.69877734375,0.009529497474431992,0.023579398170113564,0.11690215021371841
1685549017130775600,17.718775634765624,0.026686083525419235,0.015830136835575104,0.10170033574104309
1685549017150775600,17.738775634765624,0.019774580374360085,0.014940018765628338,0.0587477833032608
1685549017170775600,17.758775634765627,-0.023753931745886803,0.011065387167036533,-0.0394618958234787
1685549017190777300,17.77877734375,-0.07131415605545044,0.004642575979232788,-0.15716689825057983
1685549017210775600,17.798775634765626,-0.031817350536584854,-0.007557275705039501,-0.14826571941375732
1685549017230775600,17.818775634765625,-0.020978856831789017,-0.0038222710136324167,-0.002373647876083851
1685549017250775600,17.838775634765625,0.042411502450704575,-0.009791296906769276,0.10321877151727676
1685549017270777300,17.85877734375,0.05988224595785141,0.0024958208668977022,0.12226031720638275
1685549017290777300,17.87877734375,0.017924530431628227,0.006126105785369873,0.04469788074493408
1685549017310777300,17.89877734375,-0.025795966386795044,0.013142329640686512,-0.06037093698978424
1685549017330775600,17.918775634765623,-0.05164429172873497,0.013962633907794952,-0.12093386054039001
1685549017350777300,17.93877734375,-0.03003711625933647,-0.0038397242315113544,-0.11557570099830627
1685549017370775600,17.958775634765626,0.01771509274840355,-0.019861847162246704,-0.060126591473817825
1685549017390775600,17.978775634765626,0.04766494035720825,-0.02312561310827732,0.0046774824149906635
1685549017410775600,17.998775634765625,0.05251695588231087,-0.016580628231167793,0.07874925434589386
1685549017430791400,18.01879150390625,0.03157300502061844,-0.006963863503187895,0.10030407458543777
1685549017450775600,18.038775634765624,0.013753194361925125,0.0013788101496174932,0.0671253651380539
1685549017470775600,18.058775634765624,-0.012810716405510902,0.011030481196939945,0.02586578018963337
1685549017490777300,18.07877734375,-0.01979203335940838,0.0050090947188436985,-0.0061610122211277485
1685549017510777300,18.09877734375,-0.0049916417337954044,0.006492624990642071,-0.021380282938480377
1685549017530775600,18.118775634765626,0.0005061454721726477,-0.0028623400721699,-0.06407103687524796
1685549017550775600,18.138775634765626,-0.02272418700158596,-0.004817108623683453,-0.07298967242240906
1685549017570775600,18.158775634765625,-0.016318827867507935,-0.00020943951676599681,-0.010576695203781128
1685549017590777300,18.17877734375,-0.029304077848792076,-0.010314895771443844,0.01771509274840355
1685549017610777300,18.19877734375,0.005532693583518267,-0.002146754879504442,0.051050879061222076
1685549017630775600,18.218775634765624,0.01171115878969431,0.005672320257872343,0.050108402967453
1685549017650775600,18.238775634765624,0.001658062799833715,0.005759586580097675,0.0008377580670639873
1685549017670777300,18.25877734375,-0.008883725851774216,0.01357866171747446,-0.027977628633379936
1685549017690775600,18.278775634765626,-0.03892084211111069,0.01441641990095377,-0.03707079216837883
1685549017710775600,18.298775634765626,-0.04509930685162544,0.009581857360899448,-0.04988151043653488
1685549017730775600,18.318775634765625,-0.003263765713199973,-0.008447393774986267,-0.026912976056337357
1685549017750775600,18.338775634765625,0.0017104226863011718,-0.015620696358382702,0.01825614459812641
1685549017770775600,18.358775634765625,0.04052654653787613,-0.022165682166814804,0.05712462589144707
1685549017790775600,18.378775634765624,-0.005811946466565132,-0.017645278945565224,0.037053339183330536
1685549017810777300,18.39877734375,-0.02612757869064808,-0.002914699725806713,-0.0016929693520069122
1685549017830775600,18.418775634765623,-0.0636521577835083,0.006579891312867403,-0.05457644537091255
1685549017850775600,18.438775634765626,-0.04401720315217972,-0.011501720175147057,-0.11582005023956299
1685549017870775600,18.458775634765626,-0.03824016451835632,-0.005270894151180983,-0.04495968297123909
1685549017890775600,18.478775634765626,-0.013089969754219055,0.0073129297234117985,0.04539601504802704
1685549017910777300,18.49877734375,0.01448623277246952,-0.008011061698198318,-0.00296705961227417
1685549017930777300,18.51877734375,-0.004869468510150909,-0.0031066860537976027,-0.020804325118660927
1685549017950777300,18.53877734375,-0.04363323003053665,0.012740903533995152,-0.009093165397644043
1685549017970777300,18.55877734375,-0.051574479788541794,0.0076445420272648335,-0.0524296909570694
1685549017990777300,18.57877734375,-0.05152212083339691,0.005881759338080883,-0.03693116828799248
1685549018010775600,18.598775634765627,-0.02883283980190754,0.004607669077813625,0.010157816112041473
1685549018030775600,18.618775634765626,-0.009773843921720982,0.0013788101496174932,0.015411256812512875
1685549018050775600,18.638775634765626,0.01958259381353855,-0.007435102481395006,0.002007128670811653
1685549018070777300,18.65877734375,-0.026424285024404526,0.0016929693520069122,-0.002321287989616394
1685549018090775600,18.678775634765625,-0.04942772537469864,0.0017627825727686286,-0.03677408769726753
1685549018110775600,18.698775634765624,-0.06834709644317627,-0.00029670598451048136,-0.052324969321489334
1685549018130793000,18.71879296875,-0.0408930629491806,0.009791296906769276,0.015777776017785072
1685549018150775600,18.738775634765624,-0.021101031452417374,0.0039618974551558495,0.03769911080598831
1685549018170775600,18.758775634765627,0.01647590845823288,0.004869468510150909,0.034121185541152954
1685549018190777300,18.77877734375,0.032393310219049454,0.004014257341623306,0.00874409917742014
1685549018210775600,18.798775634765626,-0.012583823874592781,0.009930923581123352,-0.02609267272055149
1685549018230775600,18.818775634765625,-0.02701769582927227,0.016231561079621315,-0.04331907257437706
1685549018250777300,18.83877734375,-0.056007616221904755,0.020402899011969566,-0.014433872886002064
1685549018270775600,18.858775634765625,-0.04386012256145477,0.02316051907837391,0.021066123619675636
1685549018290777300,18.87877734375,0.004310963209718466,0.0027576202992349863,0.02188642881810665
1685549018310775600,18.898775634765624,0.02839650772511959,-0.002146754879504442,0.0501258559525013
1685549018330775600,18.918775634765623,0.034260813146829605,0.006911503616720438,0.054942965507507324
1685549018350777300,18.93877734375,-0.0009599310578778386,0.009983283467590809,-0.0154810706153512
1685549018370775600,18.958775634765626,-0.04986405745148659,0.00769690191373229,-0.06834709644317627
1685549018390775600,18.978775634765626,-0.07511897385120392,0.020751964300870895,-0.01218239776790142
1685549018410775600,18.998775634765625,-0.03330088034272194,0.014451325871050358,0.04000294581055641
1685549018430777300,19.01877734375,0.026947883889079094,-0.0016755161341279745,0.016632987186312675
1685549018450775600,19.038775634765624,0.025743605569005013,0.005218534264713526,-0.0077667152509093285
1685549018470777300,19.05877734375,-0.006300638429820538,0.01401499379426241,-0.031066861003637314
1685549018490775600,19.078775634765623,-0.0573166124522686,0.019460421055555344,-0.041259583085775375
1685549018510777300,19.09877734375,-0.06750933825969696,0.018797196447849274,-0.02316051907837391
1685549018530775600,19.118775634765626,-0.015009831637144089,0.00938987173140049,-0.011972958222031593
1685549018550777300,19.13877734375,0.008028514683246613,-0.0012042771559208632,-0.008255407214164734
1685549018570775600,19.158775634765625,0.03153809905052185,0.00094247778179124,0.011623892933130264
1685549018590777300,19.17877734375,0.025132741779088974,0.00020943951676599681,-0.005201081279665232
1685549018610775600,19.198775634765624,0.009494591504335403,-0.0007679448463022709,-0.019495327025651932
1685549018630777300,19.21877734375,0.010070549324154854,-0.00012217304902151227,-0.01457349956035614
1685549018650775600,19.238775634765624,-0.00045378561480902135,-0.005427973810583353,-0.003996803890913725
1685549018670777300,19.25877734375,0.009808750823140144,-0.0026354470755904913,0.01776745170354843
1685549018690775600,19.278775634765626,0.00970403105020523,-0.004188789986073971,0.021118484437465668
1685549018710775600,19.298775634765626,0.017086774110794067,-0.00029670598451048136,0.017069319263100624
1685549018730775600,19.318775634765625,0.008796459063887596,0.00094247778179124,0.004310963209718466
1685549018750775600,19.338775634765625,0.00945968460291624,0.004520402755588293,0.012880530208349228
1685549018770777300,19.35877734375,0.006108652334660292,0.010855947621166706,0.030368728563189507
1685549018790775600,19.378775634765624,-0.004328416660428047,0.005201081279665232,-0.01785471849143505
1685549018810777300,19.39877734375,0.00954695139080286,-0.009267698042094707,-0.0803724154829979
1685549018830793000,19.41879296875,-0.008203047327697277,-0.004293509759008884,-0.02157226949930191
1685549018850777300,19.43877734375,-0.0021642083302140236,-0.0009948377264663577,0.03459242731332779
1685549018870786600,19.45878662109375,0.033772122114896774,0.0017802357906475663,0.041032690554857254
1685549018890777300,19.47877734375,0.05061454698443413,0.004066617228090763,0.05190609022974968
1685549018910775600,19.498775634765625,0.022043507546186447,0.004625122528523207,0.049008846282958984
1685549018930775600,19.518775634765625,-0.00188495556358248,0.012042772024869919,0.019320795312523842
1685549018950777300,19.53877734375,-0.04024729132652283,0.013613567687571049,-0.041259583085775375
1685549018970777300,19.55877734375,-0.014992378652095795,0.018325956538319588,-0.0452214814722538
1685549018990775600,19.578775634765623,-0.030019663274288177,-0.0022165682166814804,-0.02802998758852482
1685549019010775600,19.598775634765627,0.038554321974515915,-0.001745329238474369,0.06647959351539612
1685549019030777300,19.61877734375,0.04052654653787613,-0.02577851340174675,-0.014782939106225967
1685549019050775600,19.638775634765626,-0.03242821618914604,-0.02905973233282566,-0.12744393944740295
1685549019070775600,19.658775634765625,-0.04049163684248924,-0.0028623400721699,-0.11110766232013702
1685549019090777300,19.67877734375,-0.06749188154935837,0.00041887903353199363,-0.0590444877743721
1685549019110777300,19.69877734375,0.013508847914636135,0.01563815027475357,0.059917151927948
1685549019130775600,19.718775634765624,0.06227334588766098,0.017575465142726898,0.11801916360855103
1685549019150775600,19.738775634765624,0.06229080259799957,0.01624901592731476,0.05253440886735916
1685549019170775600,19.758775634765627,0.02652900479733944,0.010838494636118412,-0.09353219717741013
1685549019190775600,19.778775634765626,-0.02591813914477825,0.004834562074393034,-0.15515977144241333
1685549019210775600,19.798775634765626,-0.05190609022974968,0.01129228062927723,-0.08431685715913773
1685549019230777300,19.81877734375,-0.02528982050716877,-0.01171115878969431,-0.013892821036279202
1685549019250777300,19.83877734375,-0.0009599310578778386,-0.01014036312699318,0.056635934859514236
1685549019270775600,19.858775634765625,0.036704275757074356,-0.005759586580097675,0.0616450272500515
1685549019290775600,19.878775634765624,0.02502802200615406,-0.016406094655394554,0.009162978269159794
1685549019310775600,19.898775634765624,0.009337511844933033,-0.0035604715812951326,-0.018064158037304878
1685549019330775600,19.918775634765623,-0.007627088576555252,0.010471975430846214,-0.020228365436196327
1685549019350777300,19.93877734375,-0.044226642698049545,0.01607448235154152,-0.03134611248970032
1685549019370775600,19.958775634765626,-0.019495327025651932,0.019198622554540634,0.012775810435414314
1685549019390775600,19.978775634765626,0.02768092229962349,0.005969026125967503,0.052028264850378036
1685549019410777300,19.99877734375,0.028274333104491234,-0.0027052604127675295,0.03626793995499611
1685549019430775600,20.018775634765625,0.045605454593896866,0.008220500312745571,0.018081611022353172
1685549019450777300,20.03877734375,-0.0014660765882581472,0.0024085543118417263,-0.013281955383718014
1685549019470775600,20.058775634765624,-0.026249751448631287,0.0046774824149906635,-0.026720991358160973
1685549019490775600,20.078775634765623,0.0007853981805965304,0.001658062799833715,0.008429939858615398
1685549019510775600,20.098775634765627,0.00094247778179124,-0.0074525559321045876,0.03925245627760887
1685549019530793000,20.11879296875,0.03015928901731968,-0.0025830871891230345,0.04445353522896767
1685549019550775600,20.138775634765626,0.017592918127775192,-0.004694935865700245,0.008255407214164734
1685549019570775600,20.158775634765625,-0.03281218931078911,0.004956734832376242,-0.03544763848185539
1685549019590777300,20.17877734375,-0.0429176464676857,0.010978121310472488,-0.048747044056653976
1685549019610777300,20.19877734375,-0.03364994749426842,-0.007679448463022709,-0.06138322874903679
1685549019630775600,20.218775634765624,-0.005113814491778612,0.006056292448192835,0.002199114765971899
1685549019650775600,20.238775634765624,0.026546457782387733,-0.010332348756492138,-0.005689773242920637
1685549019670777300,20.25877734375,0.010995574295520782,-0.0074525559321045876,-0.039968039840459824
1685549019690775600,20.278775634765626,0.012566370889544487,-0.00024434609804302454,-0.0371580608189106
1685549019710777300,20.29877734375,-0.005881759338080883,-0.00938987173140049,-0.02954842336475849
1685549019730775600,20.318775634765625,-0.00038397242315113544,-0.011170106939971447,0.00724311638623476
1685549019750775600,20.338775634765625,0.020629791542887688,-0.012810716405510902,0.02200860157608986
1685549019770775600,20.358775634765625,0.013439035043120384,-0.006492624990642071,0.009669124148786068
1685549019790775600,20.378775634765624,0.0103672556579113,-0.0055850534699857235,0.008918632753193378
1685549019810777300,20.39877734375,0.027628561481833458,-0.012723450548946857,0.026302112266421318
1685549019830777300,20.41877734375,0.05031784251332283,-0.02076941728591919,0.010576695203781128
1685549019850777300,20.43877734375,0.0394618958234787,-0.024260075762867928,-0.0223227608948946
1685549019870775600,20.458775634765626,-0.01473057921975851,-0.02099631167948246,-0.04207988828420639
1685549019890775600,20.478775634765626,-0.040194932371377945,-0.016510814428329468,-0.023684117943048477
1685549019910775600,20.498775634765625,-0.021781709045171738,-0.01696459949016571,0.03185226023197174
1685549019930777300,20.51877734375,0.02640683203935623,-0.017592918127775192,0.06274458765983582
1685549019950777300,20.53877734375,0.04738568887114525,-0.013561207801103592,0.02715732343494892
1685549019970777300,20.55877734375,0.03902556374669075,-0.0044156829826533794,-0.0012217304902151227
1685549019990775600,20.578775634765623,0.02082177810370922,0.005602506920695305,0.0008028514566831291
1685549020010775600,20.598775634765627,0.002146754879504442,0.003909537568688393,0.01682497374713421
1685549020030775600,20.618775634765626,-0.007487462367862463,-0.002199114765971899,0.043022364377975464
1685549020050777300,20.63877734375,-0.002914699725806713,-0.005497787147760391,0.04789183288812637
1685549020070777300,20.65877734375,-0.018343409523367882,-0.010698867961764336,0.0045378562062978745
1685549020090777300,20.67877734375,-0.003455751808360219,-0.012915436178445816,-0.008621926419436932
1685549020110777300,20.69877734375,-0.005096361506730318,-0.012042772024869919,0.002775073517113924
1685549020130775600,20.718775634765624,-0.019024088978767395,-0.016283921897411346,-0.013473941944539547
1685549020150777300,20.73877734375,-0.008691739290952682,-0.008761553093791008,-0.04443608224391937
1685549020170777300,20.75877734375,-0.029862582683563232,-0.01096066739410162,-0.07091272622346878
1685549020190777300,20.77877734375,-0.031154127791523933,-0.0014660765882581472,-0.04647811874747276
1685549020210777300,20.79877734375,-0.01979203335940838,0.003001966280862689,-0.020385446026921272
1685549020230793000,20.81879296875,-0.019687313586473465,-0.0003490658418741077,0.006579891312867403
1685549020250775600,20.838775634765625,0.015847589820623398,0.002914699725806713,0.022165682166814804
1685549020270777300,20.85877734375,0.0019896754529327154,-0.004485496319830418,-0.003298672381788492
1685549020290777300,20.87877734375,0.041119955480098724,-0.014974924735724926,-0.011554080061614513
1685549020310775600,20.898775634765624,0.019338248297572136,-0.024923302233219147,-0.00724311638623476
1685549020330775600,20.918775634765623,0.004764748737215996,-0.0036651913542300463,0.036651913076639175
1685549020350775600,20.938775634765626,-0.034086279571056366,-0.006684611085802317,0.01958259381353855
1685549020370775600,20.958775634765626,-0.039043016731739044,-0.0002617993741296232,-0.00012217304902151227
1685549020390775600,20.978775634765626,0.0019198621157556772,-0.003630284918472171,0.031293753534555435
1685549020410775600,20.998775634765625,0.025883233174681664,-0.006457718089222908,0.10089748352766037
1685549020430775600,21.018775634765625,0.006998770404607058,0.007801621686667204,0.10501646250486374
1685549020450777300,21.03877734375,-0.02900737151503563,0.019111355766654015,0.002949606394395232
1685549020470775600,21.058775634765624,-0.0771959125995636,0.023509584367275238,-0.0812101662158966
1685549020490777300,21.07877734375,-0.09478883445262909,0.024661501869559288,-0.051312681287527084
1685549020510777300,21.09877734375,-0.04180063679814339,0.02410299703478813,0.04616395756602287
1685549020530775600,21.118775634765626,0.02263692021369934,0.011397000402212143,0.10075785964727402
1685549020550775600,21.138775634765626,0.04419173672795296,0.0031415927223861217,0.06962118297815323
1685549020570777300,21.15877734375,-0.00019198621157556772,0.004258603323251009,0.003054326167330146
1685549020590775600,21.178775634765625,-0.07016223669052124,0.035150930285453796,0.0005061454721726477
1685549020610777300,21.19877734375,-0.11770500242710114,0.04651302471756935,0.02378883771598339
1685549020630775600,21.218775634765624,-0.09426523000001907,0.029775317758321762,0.04007275775074959
1685549020650777300,21.23877734375,-0.04611159861087799,0.00989601667970419,0.060789816081523895
1685549020670775600,21.258775634765627,0.038728855550289154,-0.0012217304902151227,0.0642455667257309
1685549020690775600,21.278775634765626,0.07641051709651947,-0.024905849248170853,-0.004747295752167702
1685549020710775600,21.298775634765626,0.0357094369828701,-0.03309144079685211,-0.02626720443367958
1685549020730777300,21.31877734375,-0.014974924735724926,-0.01219985168427229,-0.004764748737215996
1685549020750775600,21.338775634765625,-0.077178455889225,-0.014974924735724926,-0.016109388321638107
1685549020770775600,21.358775634765625,-0.07332128286361694,-0.008185594342648983,-0.018797196447849274
1685549020790775600,21.378775634765624,-0.023998277261853218,-0.018168877810239792,-0.014957471750676632
1685549020810777300,21.39877734375,0.02546435408294201,-0.02727949619293213,0.017523106187582016
1685549020830775600,21.418775634765623,0.08040732145309448,-0.019879300147294998,0.048345621675252914
1685549020850775600,21.438775634765626,0.05141739919781685,-0.015201817266643047,0.01912880875170231
1685549020870777300,21.45877734375,0.0018500490114092827,-0.008028514683246613,-0.02382374368607998
1685549020890777300,21.47877734375,-0.0414690226316452,-0.0021816615480929613,-0.04000294581055641
1685549020910775600,21.498775634765625,-0.04660028964281082,-0.0009599310578778386,-0.01432915311306715
1685549020930791400,21.51879150390625,-0.012322024442255497,-0.0019024088978767395,0.028448866680264473
1685549020950775600,21.538775634765624,0.00003490658491500653,-0.005515240598469973,0.022270401939749718
1685549020970777300,21.55877734375,-0.0119555052369833,-0.006544984877109528,-0.017505653202533722
1685549020990775600,21.578775634765623,-0.03556980937719345,0.006056292448192835,-0.03947934880852699
1685549021010775600,21.598775634765627,-0.05806710571050644,0.01226966455578804,-0.023055799305438995
1685549021030775600,21.618775634765626,-0.04476769641041756,0.01785471849143505,-0.0028448866214603186
1685549021050775600,21.638775634765626,-0.0033684854861348867,0.008115780539810658,-0.0012042771559208632
1685549021070775600,21.658775634765625,0.016982054337859154,0.0019547687843441963,-0.005497787147760391
1685549021090777300,21.67877734375,0.039130281656980515,-0.0012217304902151227,-0.024836035445332527
1685549021110775600,21.698775634765624,0.008447393774986267,-0.0037000980228185654,-0.023352505639195442
1685549021130775600,21.718775634765624,0.009581857360899448,-0.0013613568153232336,0.023195425048470497
1685549021150775600,21.738775634765624,0.017348572611808777,-0.01202531810849905,0.0253421813249588
1685549021170775600,21.758775634765627,0.03804817795753479,-0.03150319308042526,-0.015358896926045418
1685549021190777300,21.77877734375,0.025080380961298943,-0.025761060416698456,-0.023335052654147148
1685549021210777300,21.79877734375,0.010437068529427052,-0.026459190994501114,-0.04363323003053665
1685549021230777300,21.81877734375,0.018308503553271294,-0.03914773464202881,-0.05625196173787117
1685549021250777300,21.83877734375,0.031782444566488266,-0.03323106840252876,-0.030403634533286095
1685549021270777300,21.85877734375,0.038152895867824554,-0.02759365551173687,0.016318827867507935
1685549021290775600,21.878775634765624,0.053005650639534,-0.015707964077591896,0.061941735446453094
1685549021310775600,21.898775634765624,0.06949900835752487,-0.01682497374713421,0.05045747011899948
1685549021330775600,21.918775634765623,0.03118903376162052,-0.007853982038795948,0.02736676298081875
1685549021350777300,21.93877734375,0.03562216833233833,-0.0010995573829859495,-0.02658136375248432
1685549021370775600,21.958775634765626,-0.005881759338080883,-0.007801621686667204,-0.053302355110645294
1685549021390775600,21.978775634765626,-0.029077185317873955,-0.0034382985904812813,-0.010663961991667747
1685549021410775600,21.998775634765625,-0.04352851212024689,-0.00783652812242508,-0.01975712738931179
1685549021430777300,22.01877734375,-0.004694935865700245,-0.016929693520069122,-0.019565140828490257
1685549021450777300,22.03877734375,0.040997784584760666,-0.018291050568223,0.036966074258089066
1685549021470775600,22.058775634765624,0.06901031732559204,-0.021275563165545464,0.09990264475345612
1685549021490775600,22.078775634765623,0.07621853053569794,-0.0063355453312397,0.07569492608308792
1685549021510775600,22.098775634765627,0.0383099764585495,0.005497787147760391,-0.011222466826438904
1685549021530777300,22.11877734375,-0.032393310219049454,0.022130774334073067,-0.07740534842014313
1685549021550775600,22.138775634765626,-0.0555887371301651,0.02750638872385025,-0.06887069344520569
1685549021570775600,22.158775634765625,-0.049584802240133286,0.0246265958994627,-0.0008901178953237832
1685549021590775600,22.178775634765625,0.011065387167036533,0.007138396613299847,0.04427900165319443
1685549021610775600,22.198775634765624,0.08045967668294907,-0.008482299745082855,0.019896753132343292
1685549021630793000,22.21879296875,0.08677776902914047,-0.02497566118836403,-0.02122320421040058
1685549021650775600,22.238775634765624,0.03991568088531494,-0.004450589418411255,-0.03335324302315712
1685549021670775600,22.258775634765627,-0.019949113950133324,0.006143558770418167,-0.018448129296302795
1685549021690775600,22.278775634765626,-0.039357174187898636,0.026895523071289062,0.06218608096241951
1685549021710777300,22.29877734375,0.003717551240697503,0.03778637945652008,0.10997319221496582
1685549021730777300,22.31877734375,0.06869615614414215,0.025987952947616577,0.06099925562739372
1685549021750777300,22.33877734375,0.09538224339485168,0.00125663704238832,-0.04977678880095482
1685549021770775600,22.358775634765625,0.08504989743232727,-0.028361599892377853,-0.12924163043498993
1685549021790775600,22.378775634765624,-0.0008203047327697277,-0.02307325229048729,-0.06031857803463936
1685549021810775600,22.398775634765624,-0.05841616913676262,0.005777040030807257,0.0653974860906601
1685549021830777300,22.41877734375,-0.0408930629491806,0.0028972465079277754,0.08625417202711105
1685549021850777300,22.43877734375,0.016894787549972534,-0.020961403846740723,0.03848451003432274
1685549021870777300,22.45877734375,0.05225515738129616,-0.01302015595138073,0.015411256812512875
1685549021890777300,22.47877734375,0.035150930285453796,0.007941247895359993,0.019879300147294998
1685549021910777300,22.49877734375,0.0357094369828701,0.02307325229048729,0.03413863852620125
1685549021930777300,22.51877734375,0.02347467839717865,0.015585790388286114,-0.015707964077591896
1685549021950777300,22.53877734375,0.010995574295520782,0.00678933085873723,-0.0956091359257698
1685549021970777300,22.55877734375,-0.03769911080598831,0.017034413293004036,-0.08768533915281296
1685549021990777300,22.57877734375,-0.10693632066249847,0.05279621109366417,-0.003351032268255949
1685549022010777300,22.59877734375,-0.07278022915124893,0.042271874845027924,0.035726889967918396
1685549022030777300,22.61877734375,-0.04934045672416687,0.0253421813249588,0.04288274049758911
1685549022050777300,22.63877734375,-0.015707964077591896,0.03460988029837608,0.026773350313305855
1685549022070777300,22.65877734375,-0.014695672318339348,0.03525565192103386,-0.05740387737751007
1685549022090777300,22.67877734375,-0.039706241339445114,0.029269171878695488,-0.0950506329536438
1685549022110777300,22.69877734375,-0.052063170820474625,0.04738568887114525,0.005410520825535059
1685549022130777300,22.71877734375,0.012409291230142117,0.02874557301402092,0.0717155784368515
1685549022150777300,22.73877734375,0.09033824503421783,-0.012461651116609573,0.05005604401230812
1685549022170777300,22.75877734375,0.12034045159816742,-0.006073745898902416,0.08285077661275864
1685549022190777300,22.77877734375,0.03555235639214516,0.011728612706065178,0.04228932783007622
1685549022210777300,22.79877734375,-0.052900929003953934,0.017645278945565224,-0.058259088546037674
1685549022230775600,22.818775634765625,-0.12311552464962006,0.039706241339445114,-0.024015730246901512
1685549022250777300,22.83877734375,-0.10986847430467606,0.027523841708898544,0.005235987715423107
1685549022270777300,22.85877734375,0.01186823844909668,-0.030892327427864075,0.013823007233440876
1685549022290777300,22.87877734375,0.15882496535778046,-0.050335295498371124,0.1160818487405777
1685549022310777300,22.89877734375,0.19399334490299225,-0.04281292483210564,0.1560847908258438
1685549022330793000,22.91879296875,0.1339365690946579,-0.061505403369665146,0.06171484291553497
1685549022350777300,22.93877734375,0.04066617041826248,-0.047280970960855484,-0.04220206290483475
1685549022370775600,22.958775634765626,-0.07820820063352585,-0.02439970336854458,-0.10290461033582687
1685549022390775600,22.978775634765626,-0.09616763889789581,-0.02125811018049717,-0.10458012670278549
1685549022410775600,22.998775634765625,-0.07110471278429031,-0.025970499962568283,-0.033108897507190704
1685549022430775600,23.018775634765625,0.004468042869120836,-0.02485348843038082,0.07904595881700516
1685549022450775600,23.038775634765624,0.06171484291553497,-0.014468779787421227,0.09370672702789307
1685549022470775600,23.058775634765624,0.04871213808655739,-0.01129228062927723,-0.025220006704330444
1685549022490777300,23.07877734375,-0.023335052654147148,0.002146754879504442,-0.13716542720794678
1685549022510775600,23.098775634765627,-0.06759659945964813,0.00890117883682251,-0.12451178580522537
1685549022530775600,23.118775634765626,-0.06766641139984131,0.006911503616720438,-0.05532693862915039
1685549022550775600,23.138775634765626,-0.039706241339445114,0.004502949304878712,0.015289084054529667
1685549022570775600,23.158775634765625,-0.014992378652095795,0.003054326167330146,0.03698352724313736
1685549022590775600,23.178775634765625,-0.04337143152952194,0.007871435023844242,-0.005672320257872343
1685549022610775600,23.198775634765624,-0.07127925008535385,0.015847589820623398,-0.059812434017658234
1685549022630775600,23.218775634765624,-0.089867003262043,0.021380282938480377,-0.08951793611049652
1685549022650775600,23.238775634765624,-0.08527678996324539,0.009808750823140144,-0.09843657165765762
1685549022670775600,23.258775634765627,-0.014451325871050358,-0.0038397242315113544,-0.03984586521983147
1685549022690775600,23.278775634765626,0.04452335089445114,-0.0142593402415514,0.05602506920695305
1685549022710775600,23.298775634765626,0.05057964101433754,-0.018535396084189415,0.07939502596855164
1685549022730775600,23.318775634765625,0.02520255371928215,-0.00678933085873723,0.04155628755688667
1685549022750775600,23.338775634765625,-0.03822271153330803,-0.0023561944253742695,-0.03211405873298645
1685549022770775600,23.358775634765625,-0.08546877652406693,0.007051130291074514,-0.03420845419168472
1685549022790775600,23.378775634765624,-0.06881833076477051,0.01780235767364502,0.042498767375946045
1685549022810775600,23.398775634765624,-0.041748274117708206,0.0023038345389068127,0.04862487316131592
1685549022830775600,23.418775634765623,-0.00945968460291624,-0.011257373727858067,-0.003979350905865431
1685549022850775600,23.438775634765626,-0.0003665191470645368,-0.006265731994062662,-0.02869321219623089
1685549022870775600,23.458775634765626,-0.028850292786955833,0.0060388389974832535,-0.025237461552023888
1685549022890775600,23.478775634765626,-0.04928809776902199,0.007557275705039501,-0.06620033830404282
1685549022910775600,23.498775634765625,-0.052290063351392746,0.010332348756492138,-0.06373942643404007
1685549022930775600,23.518775634765625,-0.021537363529205322,0.01837831735610962,-0.024434609338641167
1685549022950775600,23.538775634765624,-0.015027284622192383,0.00923279207199812,0.004747295752167702
1685549022970775600,23.558775634765624,0.014049900695681572,0.010506882332265377,0.030019663274288177
1685549022990775600,23.578775634765623,0.025307273492217064,0.010541788302361965,0.05576327070593834
1685549023010775600,23.598775634765627,-0.0017278759041801095,0.017959438264369965,0.04098033159971237
1685549023030791400,23.61879150390625,-0.052866023033857346,0.003508111694827676,-0.09121090918779373
1685549023050775600,23.638775634765626,-0.09637708216905594,-0.02661627158522606,-0.14121459424495697
1685549023070775600,23.658775634765625,-0.07414158433675766,0.006998770404607058,-0.0325503908097744
1685549023090775600,23.678775634765625,-0.05417501926422119,0.014940018765628338,0.02790781483054161
1685549023110775600,23.698775634765624,0.015934856608510017,-0.002914699725806713,0.06600835174322128
1685549023130775600,23.718775634765624,0.08463101834058762,-0.004904375411570072,0.0852418839931488
1685549023150775600,23.738775634765624,0.0544368177652359,0.0031939526088535786,0.02839650772511959
1685549023170775600,23.758775634765627,0.0223227608948946,-0.007853982038795948,-0.09379399567842484
1685549023190775600,23.778775634765626,-0.06684610992670059,-0.004974188283085823,-0.12915436923503876
1685549023210775600,23.798775634765626,-0.0956091359257698,0.016667895019054413,-0.04164355620741844
1685549023230775600,23.818775634765625,-0.07721336930990219,0.013613567687571049,0.035849060863256454
1685549023250775600,23.838775634765625,-0.036861352622509,0.01211258489638567,0.10814060270786285
1685549023270775600,23.858775634765625,0.05567600205540657,0.006527531426399946,0.10040879249572754
1685549023290775600,23.878775634765624,0.10533062368631363,-0.00593411922454834,0.012060225009918213
1685549023310775600,23.898775634765624,0.0970577597618103,-0.01665044017136097,-0.034662239253520966
