time,seconds_elapsed,z,y,x
1685548999509926100,0.097926025390625,10.647149085998535,1.2941713333129883,-0.15091131627559662
1685548999529924600,0.117924560546875,10.000245094299316,1.1995141506195068,-0.36067211627960205
1685548999549924600,0.137924560546875,9.570199012756348,1.3401113748550415,-0.1140884980559349
1685548999569924600,0.157924560546875,9.403935432434082,1.4632881879806519,0.06906793266534805
1685548999589926100,0.177926025390625,9.546247482299805,1.4496796131134033,0.044302307069301605
1685548999609926100,0.197926025390625,9.642600059509277,1.4387141466140747,-0.013742717914283276
1685548999629926100,0.217926025390625,9.613801956176758,1.3674051761627197,-0.061387334018945694
1685548999649924600,0.237924560546875,9.829174995422363,1.3367977142333984,-0.10811257362365723
1685548999669924600,0.257924560546875,10.007428169250488,1.3080002069473267,-0.22163604199886322
1685548999689924600,0.277924560546875,9.850406646728516,1.411544680595398,-0.1614937037229538
1685548999709924600,0.297924560546875,9.645654678344727,1.466180443763733,-0.017027562484145164
1685548999729924600,0.317924560546875,9.512345314025879,1.4161608219146729,-0.03166092187166214
1685548999749926100,0.337926025390625,9.540817260742188,1.4390779733657837,-0.08305007219314575
1685548999769924600,0.357924560546875,9.621424674987793,1.4672147035598755,-0.010074800811707973
1685548999789924600,0.377924560546875,9.691373825073242,1.4485782384872437,-0.029257144778966904
1685548999809926100,0.397926025390625,9.805166244506836,1.415107250213623,-0.12795571982860565
1685548999829926100,0.417926025390625,9.760872840881348,1.4216961860656738,-0.17000748217105865
1685548999849924600,0.437924560546875,9.800617218017578,1.3988457918167114,-0.1849377155303955
1685548999869924600,0.457924560546875,9.682075500488281,1.451920509338379,-0.11728715151548386
1685548999889926100,0.477926025390625,9.551677703857422,1.4207192659378052,-0.09914868324995041
1685548999909924600,0.497924560546875,9.487436294555664,1.4644373655319214,-0.06797617673873901
1685548999929941800,0.517941650390625,9.564461708068848,1.4630870819091797,-0.0877905860543251
1685548999949926100,0.537926025390625,9.667881965637207,1.4488846063613892,-0.0877905860543251
1685548999969924600,0.557924560546875,9.713946342468262,1.4500242471694946,-0.10600567609071732
1685548999989924600,0.577924560546875,9.685263633728027,1.4287351369857788,-0.09387185424566269
1685549000009926100,0.597926025390625,9.648019790649414,1.4552627801895142,0.0009385270532220602
1685549000029926100,0.617926025390625,9.699016571044922,1.489423394203186,-0.04479072615504265
1685549000049924600,0.637924560546875,9.694878578186035,1.478706955909729,-0.048142608255147934
1685549000069924600,0.657924560546875,9.762500762939453,1.4056837558746338,-0.10309432446956635
1685549000089924600,0.677924560546875,9.755021095275879,1.4015464782714844,-0.15150508284568787
1685549000109924600,0.697924560546875,9.625743865966797,1.3998322486877441,-0.10575667768716812
1685549000129924600,0.717924560546875,9.563331604003906,1.5021796226501465,0.008705317042768002
1685549000149924600,0.737924560546875,9.557633399963379,1.43747878074646,-0.006205771118402481
1685549000169924600,0.757924560546875,9.602673530578613,1.4763318300247192,-0.0004118026699870825
1685549000189926100,0.777926025390625,9.658391952514648,1.5597362518310547,0.022266075015068054
1685549000209924600,0.797924560546875,9.65592098236084,1.5337926149368286,0.0774955227971077
1685549000229924600,0.817924560546875,9.649168968200684,1.4422575235366821,-0.08377791196107864
1685549000249926100,0.837926025390625,9.677420616149902,1.512417197227478,0.04443638399243355
1685549000269924600,0.857924560546875,9.687246322631836,1.4500148296356201,0.011166556738317013
1685549000289924600,0.877924560546875,9.67822551727295,1.349314570426941,-0.10857225954532623
1685549000309924600,0.897924560546875,9.711475372314453,1.444230318069458,-0.09838254004716873
1685549000329926100,0.917926025390625,9.54836368560791,1.5214289426803589,0.01003649365156889
1685549000349926100,0.937926025390625,9.526605606079102,1.5646108388900757,0.08237011730670929
1685549000369924600,0.957924560546875,9.728255271911621,1.49141526222229,-0.012133813463151455
1685549000389926100,0.977926025390625,9.721426010131836,1.4379000663757324,-0.048899173736572266
1685549000409924600,0.997924560546875,9.701218605041504,1.492621898651123,-0.06128198653459549
1685549000429924600,1.017924560546875,9.619298934936523,1.5360240936279297,-0.021432893350720406
1685549000449924600,1.037924560546875,9.552213668823242,1.51024329662323,-0.031220389530062675
1685549000469926100,1.057926025390625,9.602578163146973,1.5288031101226807,0.005056553985923529
1685549000489926100,1.077926025390625,9.660967826843262,1.5012410879135132,-0.01049618050456047
1685549000509924600,1.097924560546875,9.631978988647461,1.4616504907608032,-0.06165548413991928
1685549000529924600,1.117924560546875,9.584382057189941,1.5074948072433472,-0.028471847996115685
1685549000549924600,1.137924560546875,9.544581413269043,1.5273761749267578,-0.00039264908991754055
1685549000569926100,1.157926025390625,9.659463882446289,1.5259588956832886,-0.008734048344194889
1685549000589924600,1.177924560546875,9.735158920288086,1.5162575244903564,-0.04978981614112854
1685549000609924600,1.197924560546875,9.668160438537598,1.453127145767212,-0.08438124507665634
1685549000629940200,1.217940185546875,9.627640724182129,1.4813692569732666,-0.06736325472593307
1685549000649926100,1.237926025390625,9.623446464538574,1.515366792678833,-0.10145668685436249
1685549000669926100,1.257926025390625,9.664865493774414,1.52625572681427,-0.019756952300667763
1685549000689924600,1.277924560546875,9.675448417663574,1.5167362689971924,-0.025531766936182976
1685549000709926100,1.297926025390625,9.682869911193848,1.463613748550415,-0.10660901665687561
1685549000729924600,1.317924560546875,9.635905265808105,1.4987319707870483,-0.09931148588657379
1685549000749924600,1.337924560546875,9.613821029663086,1.5313888788223267,-0.07556100189685822
1685549000769926100,1.357926025390625,9.602749824523926,1.5403239727020264,-0.03687070310115814
1685549000789924600,1.377924560546875,9.665908813476562,1.4997375011444092,-0.09436985850334167
1685549000809924600,1.397924560546875,9.672920227050781,1.501394271850586,-0.07415321469306946
1685549000829924600,1.417924560546875,9.67451000213623,1.4835336208343506,-0.11149318516254425
1685549000849926100,1.437926025390625,9.64561653137207,1.4761210680007935,-0.12295661866664886
1685549000869924600,1.457924560546875,9.683061599731445,1.4532420635223389,-0.16446250677108765
1685549000889924600,1.477924560546875,9.63312816619873,1.5200115442276,-0.04725196585059166
1685549000909924600,1.497924560546875,9.558629989624023,1.4807658195495605,-0.06310158222913742
1685549000929926100,1.517926025390625,9.738080024719238,1.5532143115997314,-0.02765781804919243
1685549000949924600,1.537924560546875,9.824003219604492,1.5873461961746216,-0.03005201928317547
1685549000969924600,1.557924560546875,9.695980072021484,1.5131930112838745,-0.11076535284519196
1685549000989924600,1.577924560546875,9.601906776428223,1.4067180156707764,-0.1842481791973114
1685549001009926100,1.597926025390625,9.647321701049805,1.4476587772369385,-0.07980352640151978
1685549001029924600,1.617924560546875,9.70018482208252,1.482384443283081,-0.03828807547688484
1685549001049924600,1.637924560546875,9.65170669555664,1.4162852764129639,-0.10977894067764282
1685549001069926100,1.657926025390625,9.608094215393066,1.4717923402786255,-0.120734803378582
1685549001089924600,1.677924560546875,9.67871379852295,1.5005803108215332,-0.07218997180461884
1685549001109926100,1.697926025390625,9.725496292114258,1.5152136087417603,-0.002269703196361661
1685549001129924600,1.717924560546875,9.730428695678711,1.470173954963684,-0.032091882079839706
1685549001149924600,1.737924560546875,9.678656578063965,1.4622825384140015,-0.1325908899307251
1685549001169926100,1.757926025390625,9.521673202514648,1.521323561668396,-0.07449797540903091
1685549001189924600,1.777924560546875,9.493776321411133,1.5176844596862793,-0.03703351318836212
1685549001209926100,1.797926025390625,9.64125919342041,1.5055890083312988,-0.022859837859869003
1685549001229924600,1.817924560546875,9.727277755737305,1.5266004800796509,-0.04977066442370415
1685549001249924600,1.837924560546875,9.616215705871582,1.5188719034194946,-0.023903708904981613
1685549001269926100,1.857926025390625,9.595529556274414,1.5238806009292603,-0.004855440929532051
1685549001289924600,1.877924560546875,9.658371925354004,1.578861117362976,0.08294472843408585
1685549001309924600,1.897924560546875,9.670439720153809,1.5134515762329102,0.015935806557536125
1685549001329941800,1.917941650390625,9.61845588684082,1.4931870698928833,-0.02810792811214924
1685549001349924600,1.937924560546875,9.617268562316895,1.5251544713974,-0.01732444390654564
1685549001369924600,1.957924560546875,9.691633224487305,1.5210555791854858,0.02547430619597435
1685549001389926100,1.977926025390625,9.687629699707031,1.514696478843689,-0.010754753835499287
1685549001409926100,1.997926025390625,9.745013236999512,1.4958301782608032,-0.07900866121053696
1685549001429926100,2.017926025390625,9.631959915161133,1.4616601467132568,-0.0404045470058918
1685549001449926100,2.037926025390625,9.508715629577637,1.4804785251617432,-0.0693265050649643
1685549001469926100,2.057926025390625,9.492818832397461,1.4994598627090454,-0.022802377119660378
1685549001489924600,2.077924560546875,9.573186874389648,1.5210555791854858,-0.020389020442962646
1685549001509924600,2.097924560546875,9.711112022399902,1.5011357069015503,-0.022859837859869003
1685549001529926100,2.117926025390625,9.702310562133789,1.5023424625396729,-0.027744008228182793
1685549001549924600,2.137924560546875,9.7843656539917,1.5277209281921387,-0.06541916728019714
1685549001569926100,2.157926025390625,9.811189651489258,1.4868855476379395,-0.0764324963092804
1685549001589924600,2.177924560546875,9.63868236541748,1.5033767223358154,-0.10468407720327377
1685549001609924600,2.197924560546875,9.657951354980469,1.5263803005218506,-0.10966401547193527
1685549001629924600,2.217924560546875,9.537694931030273,1.5018348693847656,-0.06437529623508453
1685549001649924600,2.237924560546875,9.442530632019043,1.5942797660827637,-0.05364927276968956
1685549001669926100,2.257926025390625,9.513838768005371,1.5272037982940674,-0.11566866934299469
1685549001689924600,2.277924560546875,9.70730972290039,1.5140836238861084,-0.11097603291273117
1685549001709924600,2.297924560546875,9.876206398010254,1.6335734128952026,0.01639549247920513
1685549001729924600,2.317924560546875,9.93930721282959,1.6132705211639404,-0.19849847257137299
1685549001749924600,2.337924560546875,9.723150253295898,1.4756134748458862,-0.2181309312582016
1685549001769926100,2.357926025390625,9.557940483093262,1.5810445547103882,-0.00164721067994833
1685549001789926100,2.377926025390625,9.302824020385742,1.6864181756973267,0.06345592439174652
1685549001809924600,2.397924560546875,9.210034370422363,1.5793877840042114,-0.16414646804332733
1685549001829924600,2.417924560546875,9.543968200683594,1.547554612159729,-0.20082563161849976
1685549001849924600,2.437924560546875,9.735589981079102,1.5806806087493896,-0.05215528979897499
1685549001869924600,2.457924560546875,10.115981101989746,1.5864075422286987,-0.2693859934806824
1685549001889924600,2.477924560546875,9.688176155090332,1.6340522766113281,0.051839254796504974
1685549001909924600,2.497924560546875,8.915729522705078,1.5716593265533447,-0.40240782499313354
1685549001929924600,2.517924560546875,9.794622421264648,1.7878462076187134,0.09103712439537048
1685549001949924600,2.537924560546875,9.666062355041504,1.5856701135635376,-0.1106504276394844
1685549001969935600,2.557935546875,9.629555702209473,1.4675116539001465,-0.2752278447151184
1685549001989924600,2.577924560546875,9.829998016357422,1.5957928895950317,-0.2623470425605774
1685549002009924600,2.597924560546875,9.805472373962402,1.6267259120941162,-0.10059478133916855
1685549002029941800,2.617941650390625,9.558438301086426,1.687672734260559,-0.1061493307352066
1685549002049924600,2.637924560546875,9.607605934143066,1.712572455406189,-0.092186339199543
1685549002069929500,2.657929443359375,9.789593696594238,1.661662220954895,-0.11035354435443878
1685549002089924600,2.677924560546875,9.8316650390625,1.4910800457000732,-0.05333323776721954
1685549002109926100,2.697926025390625,9.227043151855469,1.6802315711975098,-0.20165881514549255
1685549002129926100,2.717926025390625,9.297910690307617,1.5263035297393799,-0.424712210893631
1685549002149926100,2.737926025390625,9.64681339263916,1.6856807470321655,-0.11414595693349838
1685549002169924600,2.757924560546875,9.595998764038086,1.6426138877868652,-0.17909586429595947
1685549002189924600,2.777924560546875,9.619481086730957,1.681591510772705,-0.0765378400683403
1685549002209924600,2.797924560546875,9.646544456481934,1.6600340604782104,-0.11397358030080795
1685549002229926100,2.817926025390625,9.729202270507812,1.6285743713378906,-0.14392025768756866
1685549002249924600,2.837924560546875,9.636144638061523,1.615004062652588,-0.19498378038406372
1685549002269927700,2.857927734375,9.443584442138672,1.7156466245651245,-0.09601707011461258
1685549002289924600,2.877924560546875,9.453927040100098,1.6915130615234375,-0.12005484849214554
1685549002309924600,2.897924560546875,9.696852684020996,1.7295042276382446,-0.06358999758958817
1685549002329926100,2.917926025390625,9.703938484191895,1.6896839141845703,-0.06201940029859543
1685549002349926100,2.937926025390625,9.664913177490234,1.6911778450012207,-0.10156203806400299
1685549002369926100,2.957926025390625,9.619787216186523,1.6817734241485596,-0.10344866663217545
1685549002389924600,2.977924560546875,9.516406059265137,1.6648321151733398,-0.11164641380310059
1685549002409924600,2.997924560546875,9.444005012512207,1.6781343221664429,-0.0728699266910553
1685549002429926100,3.017926025390625,9.610823631286621,1.6621698141098022,-0.09196607023477554
1685549002449926100,3.037926025390625,9.708325386047363,1.6853551864624023,-0.12724703550338745
1685549002469924600,3.057924560546875,9.63210391998291,1.6977858543395996,-0.05681919306516647
1685549002489926100,3.077926025390625,9.587149620056152,1.5996044874191284,-0.2107950896024704
1685549002509926100,3.097926025390625,9.61672306060791,1.7170544862747192,-0.09298121929168701
1685549002529926100,3.117926025390625,9.502969741821289,1.7716805934906006,-0.004960786085575819
1685549002549924600,3.137924560546875,9.545806884765625,1.6910151243209839,-0.015954960137605667
1685549002569926100,3.157926025390625,9.67031478881836,1.5995182991027832,-0.11759361624717712
1685549002589924600,3.177924560546875,9.783034324645996,1.726851463317871,0.01229662075638771
1685549002609926100,3.197926025390625,9.75338363647461,1.6656365394592285,-0.03778050094842911
1685549002629924600,3.217924560546875,9.657960891723633,1.622359037399292,-0.17415423691272736
1685549002649926100,3.237926025390625,9.51004695892334,1.7039916515350342,-0.08705317974090576
1685549002669924600,3.257924560546875,9.438690185546875,1.7400388717651367,-0.02343444712460041
1685549002689926100,3.277926025390625,9.5193452835083,1.7610024213790894,-0.008054094389081001
1685549002709924600,3.297924560546875,9.704973220825195,1.7386022806167603,-0.07105033099651337
1685549002729940200,3.317940185546875,9.795369148254395,1.7140090465545654,-0.12641385197639465
1685549002749926100,3.337926025390625,9.631011962890625,1.7151007652282715,-0.12391430884599686
1685549002769924600,3.357924560546875,8.978668212890625,1.6184803247451782,-0.07399998605251312
1685549002789924600,3.377924560546875,9.347566604614258,1.7280964851379395,-0.034917037934064865
1685549002809931000,3.397930908203125,9.662711143493652,1.719908356666565,-0.08206366002559662
1685549002829924600,3.417924560546875,9.697293281555176,1.6675807237625122,-0.1350521296262741
1685549002849924600,3.437924560546875,9.749706268310547,1.6381511688232422,-0.14567281305789948
1685549002869926100,3.457926025390625,9.772345542907715,1.6438493728637695,-0.16274826228618622
1685549002889924600,3.477924560546875,9.697569847106934,1.6831716299057007,-0.090519979596138
1685549002909934000,3.49793408203125,9.634421348571777,1.674121618270874,-0.12420160323381424
1685549002929926100,3.517926025390625,9.699811935424805,1.6634721755981445,-0.11493125557899475
1685549002949924600,3.537924560546875,9.704743385314941,1.626381278038025,-0.1425124704837799
1685549002969924600,3.557924560546875,9.645692825317383,1.6756634712219238,-0.10233776271343231
1685549002989926100,3.577926025390625,9.5394287109375,1.6522865295410156,-0.14756901562213898
1685549003009924600,3.597924560546875,9.547041893005371,1.6243892908096313,-0.14778926968574524
1685549003029926100,3.617926025390625,9.626998901367188,1.6711528301239014,-0.1132744699716568
1685549003049924600,3.637924560546875,9.657079696655273,1.657860279083252,-0.12039003521203995
1685549003069926100,3.657926025390625,9.551026344299316,1.674543023109436,-0.12703633308410645
1685549003089924600,3.677924560546875,9.557825088500977,1.6646788120269775,-0.0990624949336052
1685549003109927700,3.697927734375,9.642436981201172,1.653895378112793,-0.1708885282278061
1685549003129926100,3.717926025390625,9.724576950073242,1.6923749446868896,-0.12183613330125809
1685549003149926100,3.737926025390625,9.719395637512207,1.6663165092468262,-0.10808383673429489
1685549003169924600,3.757924560546875,9.641517639160156,1.6706260442733765,-0.12123279273509979
1685549003189926100,3.777926025390625,9.54573917388916,1.6420680284500122,-0.16296851634979248
1685549003209932500,3.7979326171875,9.563475608825684,1.7000460624694824,-0.12224794179201126
1685549003229926100,3.817926025390625,9.51347541809082,1.644816517829895,-0.09488700330257416
1685549003249926100,3.837926025390625,9.544245719909668,1.656366229057312,-0.12799403071403503
1685549003269926100,3.857926025390625,9.656859397888184,1.7371658086776733,-0.056742578744888306
1685549003289924600,3.877924560546875,9.713831901550293,1.7622569799423218,-0.09366117417812347
1685549003309924600,3.897924560546875,9.629498481750488,1.6812180280685425,-0.14778926968574524
1685549003329924600,3.917924560546875,9.526643753051758,1.6281912326812744,-0.150949627161026
1685549003349924600,3.937924560546875,9.688233375549316,1.6716123819351196,-0.0788937360048294
1685549003369924600,3.957924560546875,9.686873435974121,1.7341585159301758,-0.14370957016944885
1685549003389926100,3.977926025390625,9.578664779663086,1.7231166362762451,0.02843353897333145
1685549003409935600,3.997935546875,9.469134330749512,1.448875069618225,-0.313812792301178
1685549003429941800,4.017941650390625,9.708574295043945,1.686044692993164,-0.0328197181224823
1685549003449926100,4.037926025390625,9.91122817993164,1.756740689277649,0.13022541999816895
1685549003469924600,4.057924560546875,9.546218872070312,1.7607629299163818,-0.035702336579561234
1685549003489926100,4.077926025390625,9.399175643920898,1.6572376489639282,-0.2403203845024109
1685549003509929500,4.097929443359375,9.544427871704102,1.6287753582000732,-0.16696205735206604
1685549003529924600,4.117924560546875,9.591123580932617,1.7032926082611084,-0.06291962414979935
1685549003549924600,4.137924560546875,9.63684368133545,1.7571046352386475,-0.04173572361469269
1685549003569926100,4.157926025390625,9.577831268310547,1.739732265472412,-0.026594793424010277
1685549003589926100,4.177926025390625,9.568159103393555,1.639166235923767,-0.1548473834991455
1685549003609929500,4.197929443359375,9.579124450683594,1.698245644569397,-0.09867942333221436
1685549003629924600,4.217924560546875,9.540367126464844,1.7385830879211426,-0.016692375764250755
1685549003649926100,4.237926025390625,9.566971778869629,1.7475948333740234,-0.004759673029184341
1685549003669924600,4.257924560546875,9.64991569519043,1.679417610168457,-0.10726981610059738
1685549003689926100,4.277926025390625,9.699170112609863,1.674246072769165,-0.0831649899482727
1685549003709934000,4.29793408203125,9.610200881958008,1.7003906965255737,-0.05381207540631294
1685549003729924600,4.317924560546875,9.641411781311035,1.6863799095153809,-0.09120950847864151
1685549003749924600,4.337924560546875,9.580809593200684,1.6837750673294067,-0.13399869203567505
1685549003769924600,4.357924560546875,9.6005859375,1.7296383380889893,-0.08090486377477646
1685549003789926100,4.377926025390625,9.599599838256836,1.7295713424682617,-0.026642676442861557
1685549003809926100,4.397926025390625,9.678407669067383,1.7542604207992554,-0.08546342700719833
1685549003829924600,4.417924560546875,9.617555618286133,1.7214980125427246,-0.12081141769886017
1685549003849924600,4.437924560546875,9.512201309204102,1.7151774168014526,-0.1146918386220932
1685549003869926100,4.457926025390625,9.500373840332031,1.7156658172607422,-0.10584286600351334
1685549003889926100,4.477926025390625,9.533682823181152,1.7772159576416016,-0.08852799981832504
1685549003909924600,4.497924560546875,9.649848937988281,1.7405558824539185,-0.04509718343615532
1685549003929924600,4.517924560546875,9.68667221069336,1.749040961265564,-0.08728302270174026
1685549003949924600,4.537924560546875,9.573637008666992,1.7035223245620728,-0.11511322110891342
1685549003969926100,4.557926025390625,9.564184188842773,1.6952767372131348,-0.13640247285366058
1685549003989924600,4.577924560546875,9.637178421020508,1.719142198562622,-0.11530475318431854
1685549004009924600,4.597924560546875,9.602568626403809,1.7292457818984985,-0.05848555639386177
1685549004029924600,4.617924560546875,9.541325569152832,1.6863319873809814,-0.12553277611732483
1685549004049924600,4.637924560546875,9.54916763305664,1.668155312538147,-0.16082331538200378
1685549004069924600,4.657924560546875,9.686786651611328,1.774678111076355,-0.025847801938652992
1685549004089926100,4.677926025390625,9.688922882080078,1.8399919271469116,-0.004922478459775448
1685549004109926100,4.697926025390625,9.59023380279541,1.6931123733520508,-0.13192051649093628
1685549004129941800,4.717941650390625,9.697455406188965,1.640296220779419,-0.1825626641511917
1685549004149926100,4.737926025390625,9.910070419311523,1.7724753618240356,-0.02933375909924507
1685549004169926100,4.757926025390625,10.104507446289062,1.6711623668670654,-0.250969797372818
1685549004189924600,4.777924560546875,9.773524284362793,1.8109263181686401,0.02018790878355503
1685549004209926100,4.797926025390625,9.468875885009766,1.8115488290786743,-0.06526593863964081
1685549004229926100,4.817926025390625,9.3652925491333,1.8075072765350342,0.24098119139671326
1685549004249926100,4.837926025390625,9.778360366821289,1.5390981435775757,-0.22044852375984192
1685549004269924600,4.857924560546875,10.073086738586426,1.3661314249038696,-0.4893748164176941
1685549004289924600,4.877924560546875,9.774337768554688,1.6442323923110962,-0.030751127749681473
1685549004309927700,4.897927734375,9.395919799804688,1.8717964887619019,-0.0005363011732697487
1685549004329924600,4.917924560546875,9.300085067749023,1.7567310333251953,-0.005774814635515213
1685549004349926100,4.937926025390625,9.417707443237305,1.7386692762374878,-0.10915643721818924
1685549004369924600,4.957924560546875,9.606666564941406,1.7295329570770264,-0.10198341310024261
1685549004389926100,4.977926025390625,9.806382179260254,1.6761996746063232,-0.0997520238161087
1685549004409926100,4.997926025390625,9.77236557006836,1.7362271547317505,-0.0931440219283104
1685549004429926100,5.017926025390625,9.547119140625,1.7558404207229614,-0.04981854930520058
1685549004449924600,5.037924560546875,9.467391967773438,1.6879600286483765,-0.06471048295497894
1685549004469926100,5.057926025390625,9.540386199951172,1.7274357080459595,-0.10316136479377747
1685549004489926100,5.077926025390625,9.618677139282227,1.710178256034851,-0.10438719391822815
1685549004509931000,5.097930908203125,9.657271385192871,1.67996346950531,-0.05531563609838486
1685549004529924600,5.117924560546875,9.585493087768555,1.7334116697311401,-0.05815994739532471
1685549004549924600,5.137924560546875,9.626921653747559,1.7279431819915771,-0.05090072751045227
1685549004569924600,5.157924560546875,9.552146911621094,1.727081298828125,-0.044963106513023376
1685549004589924600,5.177924560546875,9.688807487487793,1.7123138904571533,-0.07645164430141449
1685549004609927700,5.197927734375,9.615765571594238,1.653904914855957,-0.06073610857129097
1685549004629926100,5.217926025390625,9.566272735595703,1.6727808713912964,-0.13457328081130981
1685549004649924600,5.237924560546875,9.604435920715332,1.7291595935821533,-0.06023811176419258
1685549004669926100,5.257926025390625,9.630973815917969,1.7640190124511719,-0.036554671823978424
1685549004689924600,5.277924560546875,9.584258079528809,1.7588380575180054,-0.07738059759140015
1685549004709929500,5.297929443359375,9.629756927490234,1.6628113985061646,-0.15326720476150513
1685549004729926100,5.317926025390625,9.561741828918457,1.6826545000076294,-0.18253393471240997
1685549004749924600,5.337924560546875,9.531661987304688,1.7323198318481445,-0.14982914924621582
1685549004769924600,5.357924560546875,9.609587669372559,1.770358920097351,-0.03505111485719681
1685549004789926100,5.377926025390625,9.69477367401123,1.7691043615341187,-0.058236561715602875
1685549004809924600,5.397924560546875,9.692322731018066,1.7370315790176392,-0.15069106221199036
1685549004829941800,5.417941650390625,9.511636734008789,1.6776649951934814,-0.17327316105365753
1685549004849926100,5.437926025390625,9.495347023010254,1.6702717542648315,-0.23214179277420044
1685549004869924600,5.457924560546875,9.622546195983887,1.7176865339279175,-0.1055842936038971
1685549004889926100,5.477926025390625,9.729958534240723,1.66610586643219,-0.12638512253761292
1685549004909924600,5.497924560546875,9.605863571166992,1.7563384771347046,-0.10310390591621399
1685549004929924600,5.517924560546875,9.547300338745117,1.8127267360687256,-0.000488417164888233
1685549004949924600,5.537924560546875,9.602654457092285,1.7499507665634155,-0.042310334742069244
1685549004969924600,5.557924560546875,9.5713472366333,1.671411395072937,-0.1660330891609192
1685549004989924600,5.577924560546875,9.641153335571289,1.7193529605865479,-0.08881530910730362
1685549005009924600,5.597924560546875,9.663764953613281,1.7842741012573242,0.03433285281062126
1685549005029926100,5.617926025390625,9.591650009155273,1.577347993850708,-0.1723729372024536
1685549005049924600,5.637924560546875,9.621329307556152,1.6454102993011475,-0.17017985880374908
1685549005069926100,5.657926025390625,9.559903144836426,1.7663174867630005,-0.07440221309661865
1685549005089926100,5.677926025390625,9.567967414855957,1.7808167934417725,0.03408385440707207
1685549005109924600,5.697924560546875,9.675907135009766,1.7592785358428955,-0.04355531558394432
1685549005129924600,5.717924560546875,9.607816696166992,1.6939935684204102,-0.14829686284065247
1685549005149924600,5.737924560546875,9.627602577209473,1.7157998085021973,-0.11772768199443817
1685549005169926100,5.757926025390625,9.579890251159668,1.7807306051254272,-0.08857589215040207
1685549005189924600,5.777924560546875,9.494101524353027,1.7372519969940186,-0.06846459209918976
1685549005209926100,5.797926025390625,9.641239166259766,1.7509562969207764,-0.04842991381883621
1685549005229924600,5.817924560546875,9.644667625427246,1.766987919807434,-0.028040889650583267
1685549005249924600,5.837924560546875,9.613504409790039,1.7184909582138062,-0.1020025685429573
1685549005269924600,5.857924560546875,9.603363037109375,1.7190368175506592,-0.08795338869094849
1685549005289926100,5.877926025390625,9.557318687438965,1.7182611227035522,-0.01602199673652649
1685549005309924600,5.897924560546875,9.585224151611328,1.687672734260559,-0.06366661190986633
1685549005329924600,5.917924560546875,9.627314567565918,1.7337276935577393,-0.04457045719027519
1685549005349924600,5.937924560546875,9.576260566711426,1.6632615327835083,-0.13397952914237976
1685549005369926100,5.957926025390625,9.573004722595215,1.6732118129730225,-0.09950301796197891
1685549005389926100,5.977926025390625,9.604004859924316,1.6950756311416626,-0.16093823313713074
1685549005409924600,5.997924560546875,9.602884292602539,1.7294564247131348,-0.04516422376036644
1685549005429924600,6.017924560546875,9.592905044555664,1.7026413679122925,-0.08252334594726562
1685549005449924600,6.037924560546875,9.65476131439209,1.7191901206970215,-0.08434294164180756
1685549005469924600,6.057924560546875,9.541190147399902,1.6789770126342773,-0.13616304099559784
1685549005489924600,6.077924560546875,9.649332046508789,1.6859681606292725,-0.11539094895124435
1685549005509924600,6.097924560546875,9.683942794799805,1.7388800382614136,-0.07252515107393265
1685549005529940200,6.117940185546875,9.569557189941406,1.7452868223190308,-0.019871873781085014
1685549005549926100,6.137926025390625,9.697417259216309,1.748313069343567,-0.03730166330933571
1685549005569924600,6.157924560546875,9.667384147644043,1.7813818454742432,-0.08905472606420517
1685549005589926100,6.177926025390625,9.499780654907227,1.7297053337097168,-0.04395754262804985
1685549005609924600,6.197924560546875,9.577314376831055,1.671229362487793,-0.1221521645784378
1685549005629926100,6.217926025390625,9.657625198364258,1.7049779891967773,-0.1389690339565277
1685549005649926100,6.237926025390625,9.623857498168945,1.69685697555542,-0.11129207164049149
1685549005669926100,6.257926025390625,9.641833305358887,1.689157247543335,-0.14816278219223022
1685549005689924600,6.277924560546875,9.520495414733887,1.694817066192627,-0.11787133663892746
1685549005709924600,6.297924560546875,9.50257682800293,1.7535420656204224,-0.06064991652965546
1685549005729926100,6.317926025390625,9.663898468017578,1.8043087720870972,-0.0308085884898901
1685549005749924600,6.337924560546875,9.611351013183594,1.7466658353805542,-0.07363606989383698
1685549005769926100,6.357926025390625,9.622018814086914,1.5714582204818726,-0.28386610746383667
1685549005789924600,6.377924560546875,9.700568199157715,1.7201859951019287,-0.04980897158384323
1685549005809924600,6.397924560546875,9.642417907714844,1.7739310264587402,-0.03279098495841026
1685549005829924600,6.417924560546875,9.623311996459961,1.6796953678131104,-0.042951975017786026
1685549005849926100,6.437926025390625,9.578376770019531,1.7475756406784058,-0.13722606003284454
1685549005869924600,6.457924560546875,9.504789352416992,1.7689799070358276,-0.11867579072713852
1685549005889924600,6.477924560546875,9.662528038024902,1.7525651454925537,-0.032925061881542206
1685549005909924600,6.497924560546875,9.539993286132812,1.7115669250488281,-0.13831782341003418
1685549005929926100,6.517926025390625,9.576796531677246,1.6789865493774414,-0.13691003620624542
1685549005949924600,6.537924560546875,9.657404899597168,1.6741982698440552,-0.15410996973514557
1685549005969924600,6.557924560546875,9.645223617553711,1.732559323310852,-0.11601343750953674
1685549005989924600,6.577924560546875,9.649322509765625,1.6563854217529297,-0.1489289253950119
1685549006009924600,6.597924560546875,9.667423248291016,1.7343405485153198,-0.07093541324138641
1685549006029924600,6.617924560546875,9.458513259887695,1.689588189125061,-0.10918517410755157
1685549006049924600,6.637924560546875,9.49538516998291,1.6828938722610474,-0.1355501264333725
1685549006069924600,6.657924560546875,9.589428901672363,1.6971060037612915,-0.0835384801030159
1685549006089924600,6.677924560546875,9.655231475830078,1.7455261945724487,-0.1300051510334015
1685549006109926100,6.697926025390625,9.654781341552734,1.6616525650024414,-0.11606132239103317
1685549006129926100,6.717926025390625,9.60756778717041,1.6808828115463257,-0.1452801674604416
1685549006149924600,6.737924560546875,9.530627250671387,1.739655613899231,-0.10762415081262589
1685549006169926100,6.757926025390625,9.54960823059082,1.6460903882980347,-0.17984284460544586
1685549006189924600,6.777924560546875,9.610010147094727,1.6540390253067017,-0.22493046522140503
1685549006209926100,6.797926025390625,9.613974571228027,1.6998066902160645,-0.11758402734994888
1685549006229940200,6.817940185546875,9.650758743286133,1.6699652671813965,-0.1330888867378235
1685549006249924600,6.837924560546875,9.681893348693848,1.6879314184188843,-0.16274826228618622
1685549006269926100,6.857926025390625,9.618915557861328,1.6807199716567993,-0.1853112131357193
1685549006289924600,6.877924560546875,9.495978355407715,1.6580612659454346,-0.15002067387104034
1685549006309926100,6.897926025390625,9.630561828613281,1.668289303779602,-0.18315643072128296
1685549006329924600,6.917924560546875,9.64436149597168,1.716135025024414,-0.08907388150691986
1685549006349924600,6.937924560546875,9.67009449005127,1.7101495265960693,-0.14531846344470978
1685549006369924600,6.957924560546875,9.640894889831543,1.676113486289978,-0.12070606648921967
1685549006389924600,6.977924560546875,9.55517292022705,1.7033021450042725,-0.13313676416873932
1685549006409924600,6.997924560546875,9.595634460449219,1.7148900032043457,-0.06889554858207703
1685549006429924600,7.017924560546875,9.602616310119629,1.7240934371948242,-0.1444469690322876
1685549006449924600,7.037924560546875,9.610899925231934,1.674351453781128,-0.1111292615532875
1685549006469924600,7.057924560546875,9.57044792175293,1.6689692735671997,-0.1424454152584076
1685549006489926100,7.077926025390625,9.532955169677734,1.697182536125183,-0.17548541724681854
1685549006509924600,7.097924560546875,9.65579605102539,1.7027467489242554,-0.10984598100185394
1685549006529926100,7.117926025390625,9.663256645202637,1.6900765895843506,-0.13272495567798615
1685549006549924600,7.137924560546875,9.563657760620117,1.6874908208847046,-0.1629302203655243
1685549006569926100,7.157926025390625,9.542367935180664,1.7383053302764893,-0.08388324826955795
1685549006589924600,7.177924560546875,9.637389183044434,1.8018665313720703,-0.03938940912485123
1685549006609924600,7.197924560546875,9.645079612731934,1.7274739742279053,-0.08195831626653671
1685549006629924600,7.217924560546875,9.556005477905273,1.6542593240737915,-0.13574165105819702
1685549006649924600,7.237924560546875,9.645453453063965,1.8421562910079956,0.011942277662456036
1685549006669926100,7.257926025390625,9.743941307067871,1.742538332939148,-0.05916551128029823
1685549006689924600,7.277924560546875,9.64588451385498,1.5507245063781738,-0.3013821244239807
1685549006709926100,7.297926025390625,9.537599563598633,1.6691895723342896,-0.1895633041858673
1685549006729924600,7.317924560546875,9.515792846679688,1.727684736251831,-0.026671407744288445
1685549006749924600,7.337924560546875,9.695358276367188,1.7640094757080078,-0.018617311492562294
1685549006769924600,7.357924560546875,9.625447273254395,1.7044034004211426,-0.13210247457027435
1685549006789924600,7.377924560546875,9.530915260314941,1.6498444080352783,-0.20360291004180908
1685549006809924600,7.397924560546875,9.586756706237793,1.7398760318756104,-0.08253291994333267
1685549006829926100,7.417926025390625,9.651966094970703,1.7575165033340454,-0.015811307355761528
1685549006849926100,7.437926025390625,9.72907829284668,1.731592059135437,-0.06795702129602432
1685549006869924600,7.457924560546875,9.57351303100586,1.704566240310669,-0.10653240233659744
1685549006889924600,7.477924560546875,9.43378734588623,1.6838995218276978,-0.12172121554613113
1685549006909924600,7.497924560546875,9.517794609069824,1.679427146911621,-0.1490342766046524
1685549006929941800,7.517941650390625,9.683300971984863,1.7631092071533203,-0.06403053551912308
1685549006949926100,7.537926025390625,9.744372367858887,1.7562140226364136,-0.022189460694789886
1685549006969926100,7.557926025390625,9.660306930541992,1.7466275691986084,-0.05750872567296028
1685549006989926100,7.577926025390625,9.575342178344727,1.7178492546081543,-0.11359050869941711
1685549007009924600,7.597924560546875,9.491189956665039,1.7099485397338867,-0.12599247694015503
1685549007029924600,7.617924560546875,9.522439002990723,1.732434868812561,-0.05650315806269646
1685549007049926100,7.637926025390625,9.673340797424316,1.6957939863204956,-0.11583147943019867
1685549007069926100,7.657926025390625,9.752551078796387,1.6659526824951172,-0.13085748255252838
1685549007089924600,7.677924560546875,9.699811935424805,1.7086459398269653,-0.13928507268428802
1685549007109924600,7.697924560546875,9.549829483032227,1.699691653251648,-0.11415553838014603
1685549007129926100,7.717926025390625,9.494800567626953,1.7334883213043213,-0.08512823283672333
1685549007149926100,7.737926025390625,9.57307243347168,1.730931282043457,-0.1150653287768364
1685549007169924600,7.757924560546875,9.616608619689941,1.6959471702575684,-0.12110830098390579
1685549007189924600,7.777924560546875,9.685320854187012,1.7251754999160767,-0.12012188881635666
1685549007209926100,7.797926025390625,9.662835121154785,1.7443674802780151,-0.07375099509954453
1685549007229926100,7.817926025390625,9.601879119873047,1.7593551874160767,-0.0597209669649601
1685549007249926100,7.837926025390625,9.566234588623047,1.717150092124939,-0.08592311292886734
1685549007269926100,7.857926025390625,9.531844139099121,1.678268313407898,-0.13774320483207703
1685549007289926100,7.877926025390625,9.613456726074219,1.6749930381774902,-0.13243766129016876
1685549007309926100,7.897926025390625,9.647550582885742,1.7553424835205078,-0.006981492042541504
1685549007329926100,7.917926025390625,9.630417823791504,1.6976039409637451,-0.13715901970863342
1685549007349924600,7.937924560546875,9.61361026763916,1.6782779693603516,-0.11216355860233307
1685549007369924600,7.957924560546875,9.601898193359375,1.7787481546401978,-0.10738473385572433
1685549007389924600,7.977924560546875,9.62289047241211,1.7621899843215942,-0.08071332424879074
1685549007409924600,7.997924560546875,9.554664611816406,1.677597999572754,-0.14439909160137177
1685549007429924600,8.017924560546875,9.629814147949219,1.7263630628585815,-0.07660488039255142
1685549007449924600,8.037924560546875,9.689046859741211,1.7815734148025513,-0.009050082415342331
1685549007469924600,8.057924560546875,9.6223726272583,1.6425085067749023,-0.13099156320095062
1685549007489926100,8.077926025390624,9.554071426391602,1.634645938873291,-0.19575950503349304
1685549007509924600,8.097924560546875,9.536842346191406,1.74947190284729,-0.10375512391328812
1685549007529924600,8.117924560546875,9.579747200012207,1.7964173555374146,0.02888364903628826
1685549007549926100,8.137926025390625,9.6914701461792,1.7595179080963135,-0.020580556243658066
1685549007569924600,8.157924560546874,9.722393989562988,1.7033404111862183,-0.16319836676120758
1685549007589924600,8.177924560546876,9.658745765686035,1.684952974319458,-0.15785451233386993
1685549007609924600,8.197924560546875,9.525628089904785,1.7479203939437866,-0.12767799198627472
1685549007629941800,8.217941650390625,9.421796798706055,1.7482174634933472,-0.06191405653953552
1685549007649926100,8.237926025390625,9.592110633850098,1.76438307762146,-0.039657559245824814
1685549007669924600,8.257924560546876,9.722833633422852,1.7522587776184082,-0.06436571478843689
1685549007689924600,8.277924560546875,9.628454208374023,1.704020380973816,-0.10497137904167175
1685549007709924600,8.297924560546875,9.520562171936035,1.698379635810852,-0.14087483286857605
1685549007729924600,8.317924560546874,9.581413269042969,1.7046716213226318,-0.09824845939874649
1685549007749924600,8.337924560546876,9.622708320617676,1.7417817115783691,-0.07148128747940063
1685549007769924600,8.357924560546875,9.617671012878418,1.7634636163711548,-0.08434294164180756
1685549007789926100,8.377926025390625,9.652894973754883,1.7457658052444458,-0.07953538000583649
1685549007809926100,8.397926025390625,9.594754219055176,1.6950373649597168,-0.1465730220079422
1685549007829926100,8.417926025390624,9.65650463104248,1.693619966506958,-0.08828858286142349
1685549007849924600,8.437924560546875,9.64333724975586,1.728355050086975,-0.07328172028064728
1685549007869924600,8.457924560546875,9.518752098083496,1.7428064346313477,-0.10734643042087555
1685549007889924600,8.477924560546874,9.670812606811523,1.7155029773712158,-0.056388236582279205
1685549007909924600,8.497924560546876,9.583759307861328,1.7298970222473145,-0.09493488073348999
1685549007929924600,8.517924560546875,9.560325622558594,1.7210766077041626,-0.10981724411249161
1685549007949924600,8.537924560546875,9.587111473083496,1.7366198301315308,-0.08860461413860321
1685549007969926100,8.557926025390625,9.556159019470215,1.7095366716384888,-0.07802224904298782
1685549007989924600,8.577924560546874,9.638577461242676,1.7109253406524658,-0.07616434246301651
1685549008009924600,8.597924560546875,9.661925315856934,1.7154837846755981,-0.0970226302742958
1685549008029926100,8.617926025390625,9.62004566192627,1.7189315557479858,-0.10341993719339371
1685549008049924600,8.637924560546875,9.63520622253418,1.7646607160568237,-0.017812861129641533
1685549008069924600,8.657924560546874,9.549857139587402,1.7580240964889526,-0.12567643821239471
1685549008089924600,8.677924560546876,9.56912612915039,1.71397066116333,-0.11797668784856796
1685549008109924600,8.697924560546875,9.641009330749512,1.716249942779541,-0.0625557005405426
1685549008129924600,8.717924560546875,9.593087196350098,1.7136354446411133,-0.1174212247133255
1685549008149924600,8.737924560546874,9.584210395812988,1.7478822469711304,-0.015466542914509773
1685549008169926100,8.757926025390624,9.653698921203613,1.7293989658355713,-0.17458519339561462
1685549008189924600,8.777924560546875,9.67009449005127,1.7691043615341187,0.02466985583305359
1685549008209926100,8.797926025390625,9.625628471374512,1.7898380756378174,-0.115984708070755
1685549008229926100,8.817926025390625,9.455612182617188,1.6944435834884644,-0.1149216815829277
1685549008249924600,8.837924560546876,9.53783893585205,1.6982072591781616,-0.123943030834198
1685549008269924600,8.857924560546875,9.848357200622559,1.7722742557525635,0.08773312717676163
1685549008289924600,8.877924560546875,9.684669494628906,1.6624761819839478,-0.18171991407871246
1685549008309924600,8.897924560546874,9.437895774841309,1.5543828010559082,-0.25854504108428955
1685549008329940200,8.917940185546875,9.582437515258789,1.7666239738464355,-0.09671617299318314
1685549008349926100,8.937926025390626,9.549551010131836,1.796110987663269,-0.003830722765997052
1685549008369924600,8.957924560546875,9.741039276123047,1.8327709436416626,-0.14989617466926575
1685549008389926100,8.977926025390625,9.68961238861084,1.7652544975280762,-0.11545798182487488
1685549008409924600,8.997924560546876,9.657203674316406,1.7786811590194702,-0.014805743470788002
1685549008429924600,9.017924560546875,9.531929969787598,1.8414474725723267,0.05951985716819763
1685549008449926100,9.037926025390625,9.641162872314453,1.7030051946640015,-0.0684741660952568
1685549008469924600,9.057924560546875,9.754830360412598,1.70811927318573,-0.18609651923179626
1685549008489924600,9.077924560546874,9.508811950683594,1.7966760396957397,-0.1221521645784378
1685549008509924600,9.097924560546875,9.441131591796875,1.6578314304351807,-0.23965959250926971
1685549008529924600,9.117924560546875,9.503294944763184,1.733593463897705,-0.003725377842783928
1685549008549926100,9.137926025390625,9.427168846130371,1.8028817176818848,0.10342951118946075
1685549008569924600,9.157924560546874,9.689209938049316,1.7802038192749023,0.024191012606024742
1685549008589926100,9.177926025390626,10.019647598266602,1.692231297492981,-0.08287768810987473
1685549008609924600,9.197924560546875,9.569547653198242,1.5542486906051636,-0.26407086849212646
1685549008629926100,9.217926025390625,9.345488548278809,1.5448634624481201,-0.2908284664154053
1685549008649924600,9.237924560546874,9.32950496673584,1.6071988344192505,-0.19281943142414093
1685549008669924600,9.257924560546876,9.523578643798828,1.8305586576461792,-0.009030928835272789
1685549008689926100,9.277926025390625,9.774950981140137,1.8313440084457397,0.0372154675424099
1685549008709924600,9.297924560546875,9.881157875061035,1.749816656112671,-0.07967903465032578
1685549008729924600,9.317924560546874,9.580848693847656,1.6568162441253662,-0.1829361617565155
1685549008749924600,9.337924560546876,9.65317153930664,1.641876459121704,-0.10069054365158081
1685549008769926100,9.357926025390626,9.643787384033203,1.6796953678131104,-0.1459696888923645
1685549008789926100,9.377926025390625,9.646458625793457,1.7733372449874878,-0.08040686696767807
1685549008809924600,9.397924560546874,9.606274604797363,1.6659908294677734,-0.08698613941669464
1685549008829924600,9.417924560546876,9.613897323608398,1.7847528457641602,-0.11680831015110016
1685549008849926100,9.437926025390626,9.648737907409668,1.7809221744537354,-0.09938810020685196
1685549008869935600,9.457935546875,9.721080780029297,1.741283655166626,-0.0923108458518982
1685549008889924600,9.477924560546874,9.513053894042969,1.7874631881713867,-0.04539406672120094
1685549008909924600,9.497924560546876,9.483261108398438,1.703369140625,-0.1016673818230629
1685549008929924600,9.517924560546875,9.62244987487793,1.6406219005584717,-0.16809211671352386
1685549008949924600,9.537924560546875,9.670161247253418,1.7330764532089233,-0.15541242063045502
1685549008969926100,9.557926025390625,9.630302429199219,1.628325343132019,-0.18856732547283173
1685549008989926100,9.577926025390624,9.599964141845703,1.7503817081451416,-0.08658390492200851
1685549009009926100,9.597926025390626,9.534477233886719,1.8475958108901978,0.050986919552087784
1685549009029941800,9.617941650390625,9.645578384399414,1.7967143058776855,0.04322970658540726
1685549009049924600,9.637924560546875,9.711475372314453,1.6623995304107666,-0.14316368103027344
1685549009069982500,9.657982421875,9.530972480773926,1.643715262413025,-0.17858828604221344
1685549009089926100,9.677926025390626,9.445825576782227,1.7513777017593384,-0.023587675765156746
1685549009109924600,9.697924560546875,9.587197303771973,1.678153395652771,-0.07188351452350616
1685549009129924600,9.717924560546875,9.729546546936035,1.632002830505371,-0.21897369623184204
1685549009149924600,9.737924560546874,9.697369575500488,1.7184813022613525,-0.12052411586046219
1685549009169924600,9.757924560546876,9.538604736328125,1.7438981533050537,-0.08797255158424377
1685549009189924600,9.777924560546875,9.480463981628418,1.736476182937622,-0.04774995893239975
1685549009209926100,9.797926025390625,9.595672607421875,1.6996151208877563,-0.14599841833114624
1685549009229924600,9.817924560546874,9.688989639282227,1.6505147218704224,-0.19329826533794403
1685549009249926100,9.837926025390624,9.586756706237793,1.711135983467102,-0.16408900916576385
1685549009269924600,9.857924560546875,9.416069030761719,1.721967339515686,-0.10101615637540817
1685549009289924600,9.877924560546875,9.422725677490234,1.7249361276626587,-0.14431290328502655
1685549009309924600,9.897924560546874,9.684843063354492,1.8033031225204468,-0.12758222222328186
1685549009329926100,9.917926025390624,9.72253704071045,1.816873550415039,-0.05435795709490776
1685549009349924600,9.937924560546875,9.645683288574219,1.7526227235794067,-0.08734047412872314
1685549009369924600,9.957924560546875,9.67699909210205,1.7990988492965698,-0.0913531556725502
1685549009389924600,9.977924560546874,9.56912612915039,1.8368985652923584,-0.08171889185905457
1685549009409926100,9.997926025390624,9.532983779907227,1.75703763961792,-0.09200438112020493
1685549009429924600,10.017924560546875,9.623091697692871,1.7888612747192383,-0.11662635207176208
1685549009449926100,10.037926025390625,9.683511734008789,1.8736448287963867,-0.05379292368888855
1685549009469926100,10.057926025390625,9.689774513244629,1.784666657447815,-0.14741578698158264
1685549009489924600,10.077924560546874,9.569452285766602,1.8438609838485718,-0.15968367457389832
1685549009509924600,10.097924560546875,9.535310745239258,1.8110315799713135,-0.1303211748600006
1685549009529924600,10.117924560546875,9.551227569580078,1.8417826890945435,0.01722867600619793
1685549009549926100,10.137926025390625,9.505440711975098,1.931220531463623,0.20884142816066742
1685549009569924600,10.157924560546874,9.58765697479248,1.825961947441101,0.11489295214414597
1685549009589924600,10.177924560546876,9.810127258300781,1.7383724451065063,-0.06271850317716599
1685549009609924600,10.197924560546875,9.655672073364258,1.6927772760391235,-0.1734742671251297
1685549009629924600,10.217924560546875,9.424670219421387,1.7031489610671997,-0.11332235485315323
1685549009649924600,10.237924560546874,9.351799964904785,1.741341233253479,-0.13914142549037933
1685549009669924600,10.257924560546876,9.499444961547852,1.823854923248291,-0.011568782851099968
1685549009689926100,10.277926025390625,9.782478332519531,1.895096778869629,0.07306145876646042
1685549009709924600,10.297924560546875,9.666781425476074,1.8060230016708374,-0.24813507497310638
1685549009729940200,10.317940185546876,9.649024963378906,1.8133587837219238,-0.24337539076805115
1685549009749926100,10.337926025390624,9.56520938873291,1.8446846008300781,-0.24752216041088104
1685549009769926100,10.357926025390626,9.35173225402832,2.0241539478302,-0.004108449909836054
1685549009789924600,10.377924560546875,9.387243270874023,1.982734203338623,0.21522915363311768
1685549009809924600,10.397924560546874,9.539237022399902,2.0849475860595703,0.08465897291898727
1685549009829924600,10.417924560546876,9.995716094970703,2.0304648876190186,-0.002221819246187806
1685549009849926100,10.437926025390626,9.867090225219727,1.9711366891860962,-0.2151908427476883
1685549009869924600,10.457924560546875,9.406837463378906,1.821681022644043,-0.4567849338054657
1685549009889924600,10.477924560546874,9.428059577941895,2.0014376640319824,-0.3776422142982483
1685549009909924600,10.497924560546876,9.466788291931152,2.3159303665161133,-0.19474436342716217
1685549009929924600,10.517924560546875,9.611111640930176,2.359447479248047,0.018167201429605484
1685549009949924600,10.537924560546875,9.685426712036133,2.409026622772217,-0.016366763040423393
1685549009969924600,10.557924560546875,9.543575286865234,2.4287259578704834,0.016156071797013283
1685549009989926100,10.577926025390624,9.426748275756836,2.3417112827301025,-0.058715399354696274
1685549010009926100,10.597926025390626,9.572612762451172,2.1957414150238037,-0.10559387505054474
1685549010029926100,10.617926025390625,9.487503051757812,2.0805039405822754,0.4465569257736206
1685549010049926100,10.637926025390625,9.05334758758545,2.0984315872192383,0.1138778105378151
1685549010069926100,10.657926025390625,9.575591087341309,2.192772626876831,-0.7775697112083435
1685549010089926100,10.677926025390626,10.316328048706055,2.1160147190093994,-1.0101137161254883
1685549010109924600,10.697924560546875,10.030890464782715,2.2489118576049805,-0.7958805561065674
1685549010129924600,10.717924560546875,9.078276634216309,2.9636292457580566,0.19665014743804932
1685549010149926100,10.737926025390625,8.504568099975586,3.1660444736480713,0.9677650928497314
1685549010169924600,10.757924560546876,8.817625045776367,3.224012851715088,0.8722842931747437
1685549010189924600,10.777924560546875,9.460103988647461,2.9844107627868652,0.14591223001480103
1685549010209924600,10.797924560546875,10.381478309631348,2.354668617248535,-0.6379302144050598
1685549010229926100,10.817926025390625,10.459875106811523,2.195301055908203,-0.7212963700294495
1685549010249924600,10.837924560546876,9.134071350097656,2.7016937732696533,0.030990546569228172
1685549010269926100,10.857926025390626,8.424238204956055,2.9963338375091553,0.29109662771224976
1685549010289924600,10.877924560546875,9.064303398132324,3.2569379806518555,0.5427080392837524
1685549010309926100,10.897926025390625,9.372830390930176,3.1347761154174805,0.011109095998108387
1685549010329924600,10.917924560546876,9.813488006591797,2.8456428050994873,-0.3988165259361267
1685549010349926100,10.937926025390626,9.839861869812012,3.0306951999664307,-0.11085154116153717
1685549010369926100,10.957926025390625,9.34133243560791,3.392066717147827,0.42412805557250977
1685549010389926100,10.977926025390625,8.841710090637207,3.2081727981567383,0.5258145928382874
1685549010409926100,10.997926025390624,9.163529396057129,2.9950122833251953,0.11626243591308594
1685549010429940200,11.017940185546875,9.507221221923828,2.8097870349884033,-0.30800923705101013
1685549010449926100,11.037926025390625,9.7246732711792,2.766998052597046,-0.34808820486068726
1685549010469924600,11.057924560546875,9.545854568481445,3.148528575897217,0.14485877752304077
1685549010489926100,11.077926025390624,9.229973793029785,3.1921987533569336,0.5096776485443115
1685549010509926100,11.097926025390626,8.964244842529297,3.2262539863586426,0.4735634922981262
1685549010529924600,11.117924560546875,9.371853828430176,2.836573600769043,0.3912796080112457
1685549010549924600,11.137924560546875,9.31478500366211,2.7031493186950684,0.024890121072530746
1685549010569924600,11.157924560546874,9.33008861541748,2.5168232917785645,-0.25902390480041504
1685549010589924600,11.177924560546876,9.541707992553711,2.6755011081695557,-0.25990498065948486
1685549010609926100,11.197926025390625,9.308752059936523,2.983797788619995,0.0439479686319828
1685549010629926100,11.217926025390625,9.190899848937988,3.1044845581054688,0.40953299403190613
1685549010649926100,11.237926025390625,9.178900718688965,3.0693283081054688,0.5185362100601196
1685549010669924600,11.257924560546876,9.101730346679688,2.9544546604156494,0.29403671622276306
1685549010689924600,11.277924560546875,9.232749938964844,2.753628969192505,0.1971481442451477
1685549010709924600,11.297924560546875,9.682860374450684,2.6612892150878906,0.11917378008365631
1685549010729924600,11.317924560546874,9.71107292175293,2.4685657024383545,-0.007220912259072065
1685549010749924600,11.337924560546876,9.757616996765137,2.543044328689575,-0.06688442081212997
1685549010769924600,11.357924560546875,9.338813781738281,2.8423099517822266,0.047309424728155136
1685549010789924600,11.377924560546875,9.156949996948242,2.9640696048736572,0.23001573979854584
1685549010809926100,11.397926025390625,9.381142616271973,3.0031142234802246,0.09028055518865585
1685549010829926100,11.417926025390624,9.492071151733398,3.040128707885742,0.14070244133472443
1685549010849924600,11.437924560546875,9.667038917541504,3.0040338039398193,0.30187052488327026
1685549010869924600,11.457924560546875,9.430386543273926,2.887847900390625,0.4654998481273651
1685549010889926100,11.477926025390625,9.184090614318848,2.817324161529541,0.46278002858161926
1685549010909924600,11.497924560546876,9.368568420410156,2.5688252449035645,0.11292970180511475
1685549010929924600,11.517924560546875,9.795818328857422,2.5398361682891846,-0.18967823684215546
1685549010949924600,11.537924560546875,9.695615768432617,2.590574264526367,-0.19972430169582367
1685549010969924600,11.557924560546875,9.401369094848633,2.8407106399536133,0.1638687402009964
1685549010989926100,11.577926025390624,8.89806079864502,2.9719033241271973,0.5111620426177979
1685549011009924600,11.597924560546875,8.950857162475586,2.9682257175445557,0.5198386311531067
1685549011029926100,11.617926025390625,9.587590217590332,2.694089889526367,0.26687687635421753
1685549011049924600,11.637924560546875,9.763506889343262,2.4509634971618652,-0.05362053960561752
1685549011069924600,11.657924560546874,9.479573249816895,2.5224733352661133,0.0017717091832309961
1685549011089924600,11.677924560546876,9.499761581420898,2.459352731704712,-0.04232948645949364
1685549011109926100,11.697926025390625,9.50361156463623,2.6478052139282227,0.08905472606420517
1685549011129940200,11.717940185546874,9.448314666748047,2.8061578273773193,0.040845081210136414
1685549011149926100,11.737926025390625,9.501264572143555,2.719468355178833,-0.11021946370601654
1685549011169926100,11.757926025390624,9.392213821411133,2.97333025932312,0.06568731367588043
1685549011189924600,11.777924560546875,9.17021369934082,3.0243937969207764,0.31865864992141724
1685549011209924600,11.797924560546875,9.204862594604492,2.893766403198242,0.32230743765830994
1685549011229926100,11.817926025390625,9.44909954071045,2.850162982940674,0.2552219033241272
1685549011249926100,11.837926025390624,9.708295822143555,2.7392542362213135,-0.019843144342303276
1685549011269924600,11.857924560546875,9.70913028717041,2.6105799674987793,-0.19901563227176666
1685549011289924600,11.877924560546875,9.710383415222168,2.6618447303771973,-0.1247570663690567
1685549011309924600,11.897924560546874,9.411510467529297,2.9439198970794678,-0.12982319295406342
1685549011329926100,11.917926025390624,9.390355110168457,3.1233415603637695,0.221798837184906
1685549011349924600,11.937924560546875,9.142134666442871,3.0633811950683594,0.4482711851596832
1685549011369926100,11.957926025390625,8.981578826904297,2.951265335083008,0.26098716259002686
1685549011389924600,11.977924560546874,9.311624526977539,2.8091070652008057,0.19792385399341583
1685549011409924600,11.997924560546876,9.80343246459961,2.6782209873199463,-0.047778692096471786
1685549011429924600,12.017924560546875,9.834595680236816,2.445619583129883,-0.2938355803489685
1685549011449926100,12.037926025390625,9.522209167480469,2.6544225215911865,-0.1517828106880188
1685549011469926100,12.057926025390625,9.32693862915039,2.9802064895629883,0.18080054223537445
1685549011489926100,12.077926025390624,9.412602424621582,2.9792487621307373,0.06633853912353516
1685549011509924600,12.097924560546875,9.484371185302734,3.013007164001465,0.21903114020824432
1685549011529924600,12.117924560546875,9.20500659942627,2.9424259662628174,0.3150673508644104
1685549011549924600,12.137924560546875,9.294578552246094,2.838374137878418,0.35563474893569946
1685549011569926100,12.157926025390625,9.664117813110352,2.607515335083008,0.14629530906677246
1685549011589926100,12.177926025390626,9.781472206115723,2.600064754486084,0.013570335693657398
1685549011609924600,12.197924560546875,9.71364974975586,2.602238655090332,-0.36933913826942444
1685549011629926100,12.217926025390625,9.360381126403809,2.728738784790039,-0.3556155562400818
1685549011649924600,12.237924560546874,9.140717506408691,3.120142936706543,-0.003725377842783928
1685549011669924600,12.257924560546876,9.05247688293457,3.2933871746063232,0.7700327038764954
1685549011689924600,12.277924560546875,9.046395301818848,3.032993793487549,0.8286906480789185
1685549011709926100,12.297926025390625,9.4504976272583,2.7728302478790283,0.12786951661109924
1685549011729924600,12.317924560546874,9.833781242370605,2.4808623790740967,-0.37844669818878174
1685549011749924600,12.337924560546876,9.549187660217285,2.3616979122161865,-0.6184223294258118
1685549011769924600,12.357924560546875,9.521500587463379,2.7897238731384277,-0.3183809518814087
1685549011789924600,12.377924560546875,9.409414291381836,3.0758979320526123,0.25310543179512024
1685549011809924600,12.397924560546874,9.479506492614746,3.260146141052246,0.40088513493537903
1685549011829940200,12.417940185546875,9.324189186096191,3.1769139766693115,0.4015076160430908
1685549011849924600,12.437924560546875,9.318558692932129,2.8478360176086426,0.33495840430259705
1685549011869926100,12.457926025390625,9.38008975982666,2.6208560466766357,0.3206793963909149
1685549011889924600,12.477924560546874,9.335203170776367,2.5583291053771973,0.11989204585552216
1685549011909924600,12.497924560546876,9.869014739990234,2.431331157684326,-0.10792103409767151
1685549011929924600,12.517924560546875,10.027654647827148,2.633152484893799,-0.15633179247379303
1685549011949924600,12.537924560546875,9.612958908081055,2.7471835613250732,-0.107107013463974
1685549011969926100,12.557926025390625,9.342405319213867,2.9454331398010254,0.1042531207203865
1685549011989924600,12.577924560546874,9.356263160705566,3.231147527694702,0.3550984263420105
1685549012009924600,12.597924560546875,9.406780242919922,3.1979737281799316,0.6561357378959656
1685549012029926100,12.617926025390625,9.344876289367676,2.9731388092041016,0.5470559000968933
1685549012049924600,12.637924560546875,9.366558074951172,2.6198408603668213,0.015006856061518192
1685549012069924600,12.657924560546874,9.510831832885742,2.4642271995544434,-0.40478289127349854
1685549012089924600,12.677924560546876,9.758344650268555,2.6843693256378174,-0.06564901024103165
1685549012109924600,12.697924560546875,9.560880661010742,2.822754144668579,0.1914978325366974
1685549012129924600,12.717924560546875,9.335949897766113,3.0436720848083496,0.50203537940979
1685549012149924600,12.737924560546874,9.157410621643066,3.1876211166381836,0.558452308177948
1685549012169924600,12.757924560546876,9.194683074951172,2.9697389602661133,0.203583762049675
1685549012189924600,12.777924560546875,9.08486557006836,2.752652168273926,0.3806397616863251
1685549012209926100,12.797926025390625,8.782296180725098,2.722255229949951,0.2207549810409546
1685549012229924600,12.817924560546874,9.155360221862793,2.6659436225891113,0.3812526762485504
1685549012249926100,12.837926025390624,9.895359992980957,2.4434361457824707,0.10881167650222778
1685549012269924600,12.857924560546875,10.00331974029541,2.4569296836853027,-0.053237468004226685
1685549012289926100,12.877926025390625,9.772384643554688,2.6239397525787354,0.005880159325897694
1685549012309924600,12.897924560546874,9.195477485656738,2.7959392070770264,0.028778305277228355
1685549012329924600,12.917924560546876,8.965346336364746,3.113678455352783,0.43749725818634033
1685549012349924600,12.937924560546875,8.97730827331543,3.1339621543884277,0.7050732374191284
1685549012369924600,12.957924560546875,9.246933937072754,2.893641948699951,0.5867613554000854
1685549012389926100,12.977926025390625,9.43302059173584,2.7157716751098633,0.327067106962204
1685549012409924600,12.997924560546876,9.550882339477539,2.60634708404541,-0.1034390851855278
1685549012429926100,13.017926025390626,9.882201194763184,2.730271100997925,-0.18313728272914886
1685549012449924600,13.037924560546875,10.212045669555664,2.8753786087036133,0.04916732758283615
1685549012469926100,13.057926025390625,9.552979469299316,3.2126643657684326,0.22326409816741943
1685549012489926100,13.077926025390624,9.120587348937988,2.9892470836639404,0.48998773097991943
1685549012509924600,13.097924560546875,8.435921669006348,3.2627127170562744,0.3673758804798126
1685549012529941800,13.117941650390625,8.79049301147461,2.9288079738616943,0.7320032119750977
1685549012549924600,13.137924560546875,9.705145835876465,2.5805470943450928,0.23712173104286194
1685549012569926100,13.157926025390625,9.810213088989258,2.519792079925537,-0.14281892776489258
1685549012589926100,13.177926025390626,9.692255020141602,2.256180763244629,-0.4255262315273285
1685549012609924600,13.197924560546875,9.209871292114258,2.564563512802124,-0.23128946125507355
1685549012629924600,13.217924560546875,9.173786163330078,2.872563123703003,0.242092102766037
1685549012649924600,13.237924560546874,9.138945579528809,2.9113972187042236,0.2131318300962448
1685549012669926100,13.257926025390624,9.543383598327637,2.9376089572906494,0.2174222469329834
1685549012689924600,13.277924560546875,9.5597505569458,2.701282024383545,0.12533167004585266
1685549012709924600,13.297924560546875,9.29755687713623,2.5471816062927246,-0.22068794071674347
1685549012729924600,13.317924560546874,9.459625244140625,2.2586421966552734,-0.5997188091278076
1685549012749926100,13.337926025390624,10.406876564025879,2.9004316329956055,-0.3874201476573944
1685549012769924600,13.357924560546875,10.750061988830566,3.381082057952881,0.04500141367316246
1685549012789926100,13.377926025390625,10.183717727661133,3.475375175476074,0.1939590573310852
1685549012809926100,13.397926025390625,9.867539405822754,3.424206495285034,0.6918860077857971
1685549012829924600,13.417924560546876,8.61027717590332,2.9721620082855225,0.7194575667381287
1685549012849924600,13.437924560546875,7.772507667541504,2.7549026012420654,0.19811540842056274
1685549012869924600,13.457924560546875,8.684621810913086,2.5702807903289795,-0.18988892436027527
1685549012889924600,13.477924560546874,9.973823547363281,2.4740817546844482,-0.8003624677658081
1685549012909924600,13.497924560546876,10.252067565917969,2.7907676696777344,-0.5000912547111511
1685549012929924600,13.517924560546875,9.833819389343262,2.984611749649048,0.2574533224105835
1685549012949924600,13.537924560546875,8.90038776397705,3.0838849544525146,0.6596217155456543
1685549012969924600,13.557924560546875,8.750654220581055,3.0516302585601807,0.27107149362564087
1685549012989926100,13.577926025390624,9.41076374053955,2.768568515777588,-0.18857690691947937
1685549013009926100,13.597926025390626,10.058089256286621,2.3894801139831543,-0.608673095703125
1685549013029926100,13.617926025390625,9.85771369934082,2.365614891052246,-0.3793564736843109
1685549013049926100,13.637926025390625,9.41208553314209,2.7996933460235596,0.29745563864707947
1685549013069926100,13.657926025390625,9.288429260253906,2.9906835556030273,0.18132725358009338
1685549013089924600,13.677924560546876,9.550106048583984,2.934553861618042,-0.32340875267982483
1685549013109924600,13.697924560546875,9.62063980102539,3.0022332668304443,-0.4210251569747925
1685549013129924600,13.717924560546875,9.285202026367188,3.1593120098114014,0.2110441029071808
1685549013149924600,13.737924560546874,8.732975959777832,3.3110084533691406,0.8838339447975159
1685549013169926100,13.757926025390624,8.611531257629395,3.078368902206421,0.7550354599952698
1685549013189926100,13.777926025390625,9.387818336486816,2.6597378253936768,0.03539587929844856
1685549013209926100,13.797926025390625,10.007369995117188,2.344679832458496,-0.6277309656143188
1685549013229940200,13.817940185546876,10.013202667236328,2.283417224884033,-0.8794573545455933
1685549013249924600,13.837924560546876,9.71969223022461,2.7870805263519287,0.05747999623417854
1685549013269924600,13.857924560546875,9.177032470703125,3.116542100906372,0.7846469283103943
1685549013289924600,13.877924560546875,8.606609344482422,3.162625551223755,0.641674816608429
1685549013309926100,13.897926025390625,9.135805130004883,2.814690589904785,0.05503791198134422
1685549013329924600,13.917924560546876,9.688060760498047,2.407360315322876,-0.4417206346988678
1685549013349926100,13.937926025390626,9.568675994873047,2.478745937347412,-0.387295663356781
1685549013369926100,13.957926025390625,9.74068546295166,2.679523468017578,-0.06295792758464813
1685549013389924600,13.977924560546874,9.826837539672852,3.0014097690582275,0.1212136447429657
1685549013409926100,13.997926025390624,9.497309684753418,3.1044082641601562,0.18992723524570465
1685549013429926100,14.017926025390626,9.245295524597168,3.032179832458496,0.3095223903656006
1685549013449926100,14.037926025390625,8.990591049194336,2.917957305908203,0.3893929719924927
1685549013469926100,14.057926025390625,9.145008087158203,2.8175060749053955,0.5501300692558289
1685549013489926100,14.077926025390624,9.521184921264648,2.6705691814422607,0.4673098623752594
1685549013509924600,14.097924560546875,9.714665412902832,2.448655605316162,0.05227978900074959
1685549013529924600,14.117924560546875,9.886549949645996,2.38075590133667,-0.37607163190841675
1685549013549924600,14.137924560546875,9.786031723022461,2.495581865310669,-0.40830716490745544
1685549013569926100,14.157926025390625,9.23813247680664,2.8736071586608887,0.1545122116804123
1685549013589924600,14.177924560546876,8.889402389526367,2.976461887359619,0.5291568636894226
1685549013609926100,14.197926025390625,9.031475067138672,2.904961347579956,0.43652042746543884
1685549013629924600,14.217924560546875,9.67602252960205,2.6308064460754395,0.0954807698726654
1685549013649926100,14.237926025390625,9.790963172912598,2.223830223083496,-0.319980263710022
1685549013669924600,14.257924560546876,9.465084075927734,2.2580769062042236,-0.24762748181819916
1685549013689924600,14.277924560546875,9.272273063659668,2.4506473541259766,-0.09109459072351456
1685549013709926100,14.297926025390625,9.308379173278809,2.6909677982330322,0.11338938772678375
1685549013729924600,14.317924560546874,9.368319511413574,2.7990036010742188,0.27362850308418274
1685549013749924600,14.337924560546876,9.499014854431152,2.7817752361297607,0.3812048137187958
1685549013769924600,14.357924560546875,9.594265937805176,2.7121899127960205,0.28973671793937683
1685549013789924600,14.377924560546875,9.40373420715332,2.5891473293304443,0.15765339136123657
1685549013809924600,14.397924560546874,9.2987060546875,2.479827880859375,-0.09624691307544708
1685549013829926100,14.417926025390624,9.368414878845215,2.4971907138824463,-0.02841438539326191
1685549013849926100,14.437926025390626,9.575389862060547,2.5108280181884766,-0.06960423290729523
1685549013869926100,14.457926025390625,9.63534927368164,2.5765442848205566,0.021796811372041702
1685549013889926100,14.477926025390625,9.64783763885498,2.6725897789001465,0.1030847504734993
1685549013909926100,14.497926025390624,9.511722564697266,2.5997774600982666,0.12463255971670151
1685549013929941800,14.517941650390625,9.356779098510742,2.50762939453125,-0.04389050602912903
1685549013949926100,14.537926025390625,9.184732437133789,2.4364256858825684,-0.09841126948595047
1685549013969924600,14.557924560546875,9.405046463012695,2.5579938888549805,-0.1232151910662651
1685549013989924600,14.577924560546874,9.384686470031738,2.9772090911865234,-0.9113864302635193
1685549014009924600,14.597924560546875,10.158329963684082,3.39939284324646,-0.36527857184410095
1685549014029924600,14.617924560546875,9.885457992553711,3.726412057876587,0.07742848247289658
1685549014049924600,14.637924560546875,9.058998107910156,4.051075458526611,1.3543424606323242
1685549014069926100,14.657926025390625,8.806859970092773,3.218841314315796,2.198183536529541
1685549014089926100,14.677926025390626,8.053625106811523,2.583448886871338,0.7273584604263306
1685549014109926100,14.697926025390625,9.037881851196289,1.737366795539856,-0.3140426576137543
1685549014129926100,14.717926025390625,11.206942558288574,1.4161511659622192,-2.06925106048584
1685549014149926100,14.737926025390625,11.20754623413086,2.245004653930664,-2.3802292346954346
1685549014169926100,14.757926025390624,10.204604148864746,2.9457874298095703,-0.15325763821601868
1685549014189926100,14.777926025390625,8.281878471374512,4.229750156402588,1.3308122158050537
1685549014209926100,14.797926025390625,7.309372901916504,4.236281394958496,2.6109631061553955
1685549014229926100,14.817926025390625,7.821052551269531,3.383016586303711,2.609478712081909
1685549014249924600,14.837924560546876,8.72121524810791,2.483706474304199,0.7948654294013977
1685549014269924600,14.857924560546875,10.07776927947998,1.4046493768692017,-1.134296178817749
1685549014289924600,14.877924560546875,11.08443546295166,1.288549780845642,-2.2507219314575195
1685549014309924600,14.897924560546874,11.178470611572266,1.9045300483703613,-2.666163921356201
1685549014329926100,14.917926025390624,10.14095687866211,2.5164592266082764,-1.3012964725494385
1685549014349924600,14.937924560546875,8.74449634552002,4.068763732910156,1.089572548866272
1685549014369924600,14.957924560546875,7.842456340789795,4.118505954742432,2.4693222045898438
1685549014389924600,14.977924560546874,8.280566215515137,3.8713858127593994,2.03497576713562
1685549014409924600,14.997924560546876,9.240612983703613,2.9135422706604004,0.7533212304115295
1685549014429924600,15.017924560546875,10.334562301635742,1.5971912145614624,-1.0648260116577148
1685549014449924600,15.037924560546875,10.398161888122559,1.5127811431884766,-1.4220600128173828
1685549014469924600,15.057924560546875,9.71969223022461,1.9010823965072632,-0.9665583372116089
1685549014489926100,15.077926025390624,9.707807540893555,2.613070011138916,-0.7594695091247559
1685549014509924600,15.097924560546875,10.074627876281738,3.5034258365631104,0.3227096498012543
1685549014529924600,15.117924560546875,8.97567081451416,3.5939841270446777,0.5202887654304504
1685549014549924600,15.137924560546875,8.26589584350586,3.60760235786438,1.1352921724319458
1685549014569926100,15.157926025390625,8.769453048706055,3.1503961086273193,0.634310245513916
1685549014589924600,15.177924560546876,9.498305320739746,3.070075273513794,0.05726930499076843
1685549014609924600,15.197924560546875,9.82767105102539,2.4167838096618652,-0.3912125527858734
1685549014629940200,15.217940185546874,9.768295288085938,1.9431627988815308,-0.8874443769454956
1685549014649924600,15.237924560546874,9.184913635253906,2.6506781578063965,0.02134670317173004
1685549014669926100,15.257926025390624,9.16269588470459,3.041431188583374,0.9426354765892029
1685549014689924600,15.277924560546875,9.539648056030273,2.9834530353546143,0.3665522634983063
1685549014709926100,15.297926025390625,9.853346824645996,2.8784432411193848,-0.425468772649765
1685549014729924600,15.317924560546874,9.829347610473633,2.8970320224761963,-0.4750766456127167
1685549014749924600,15.337924560546876,9.19901180267334,3.3125216960906982,0.3349296450614929
1685549014769926100,15.357926025390626,8.354576110839844,3.5311315059661865,0.9576423764228821
1685549014789924600,15.377924560546875,8.407842636108398,3.1765120029449463,0.9861812591552734
1685549014809924600,15.397924560546874,9.360064506530762,2.804069757461548,0.3466133773326874
1685549014829924600,15.417924560546876,10.212850570678711,2.4849801063537598,-0.3690614104270935
1685549014849924600,15.437924560546875,10.671359062194824,2.3183531761169434,-0.6188532710075378
1685549014869926100,15.457926025390625,10.258627891540527,2.6000168323516846,-0.5699636936187744
1685549014889926100,15.477926025390625,9.065194129943848,3.280238389968872,0.13986925780773163
1685549014909924600,15.497924560546876,8.518617630004883,3.4793496131896973,0.721459150314331
1685549014929924600,15.517924560546875,8.434600830078125,3.5241498947143555,0.974871039390564
1685549014949924600,15.537924560546875,9.034682273864746,3.4242255687713623,0.8459863662719727
1685549014969924600,15.557924560546875,9.331439018249512,2.5068440437316895,0.05956773832440376
1685549014989926100,15.577926025390624,9.643835067749023,2.263765573501587,-0.3561997413635254
1685549015009926100,15.597926025390626,9.971256256103516,2.311448574066162,-0.36217570304870605
1685549015029924600,15.617924560546875,9.848241806030273,2.5172061920166016,-0.004979939665645361
1685549015049924600,15.637924560546875,9.766054153442383,2.6851067543029785,0.2372175008058548
1685549015069926100,15.657926025390625,9.325223922729492,2.76137638092041,-0.2806291878223419
1685549015089924600,15.677924560546876,9.133275985717773,3.041182041168213,-0.1370057910680771
1685549015109926100,15.697926025390625,9.178229331970215,2.9482200145721436,0.046437934041023254
1685549015129924600,15.717924560546875,9.302719116210938,3.2562386989593506,0.4714757800102234
1685549015149924600,15.737924560546874,9.079541206359863,2.9817867279052734,0.2671450078487396
1685549015169924600,15.757924560546876,9.481354713439941,2.7155516147613525,0.0018291701562702656
1685549015189924600,15.777924560546875,9.777239799499512,2.63124680519104,-0.07894162088632584
1685549015209924600,15.797924560546875,9.744132995605469,2.4807662963867188,-0.0054683564230799675
1685549015229924600,15.817924560546874,9.790522575378418,2.417118787765503,-0.2182745784521103
1685549015249924600,15.837924560546876,9.447577476501465,2.8423099517822266,-0.20300915837287903
1685549015269926100,15.857926025390626,9.428328514099121,2.872687816619873,-0.22260330617427826
1685549015289926100,15.877926025390625,9.127884864807129,3.189344644546509,-0.11983458697795868
1685549015309924600,15.897924560546874,9.294204711914062,3.4006857872009277,0.23331016302108765
1685549015329940200,15.917940185546875,9.450651168823242,3.376992702484131,0.27994921803474426
1685549015349924600,15.937924560546875,9.62022876739502,3.066464900970459,0.34555989503860474
1685549015369924600,15.957924560546875,9.463637351989746,2.5642378330230713,0.12425906956195831
1685549015389924600,15.977924560546874,9.369651794433594,2.148566246032715,-0.5876424312591553
1685549015409924600,15.997924560546876,9.453744888305664,2.340571641921997,-0.7627831101417542
1685549015429926100,16.017926025390626,9.4487943649292,2.523852586746216,-0.45863327383995056
1685549015449924600,16.037924560546877,9.204421997070312,2.8404042720794678,-0.006579265929758549
1685549015469924600,16.057924560546876,9.35550594329834,3.338714361190796,0.6219370365142822
1685549015489926100,16.077926025390624,8.990218162536621,3.298309803009033,0.49760133028030396
1685549015509924600,16.097924560546875,8.95434284210205,2.7608306407928467,0.26407086849212646
1685549015529924600,16.117924560546875,9.0275297164917,2.401336431503296,-0.015054740011692047
1685549015549924600,16.137924560546875,9.243965148925781,2.2992379665374756,-0.08973468095064163
1685549015569924600,16.157924560546874,9.595548629760742,2.195885181427002,-0.6056564450263977
1685549015589924600,16.177924560546874,10.105513572692871,2.2168009281158447,-0.8418875336647034
1685549015609924600,16.197924560546873,10.200812339782715,2.6385252475738525,-0.5981769561767578
1685549015629924600,16.217924560546876,9.553171157836914,3.018791437149048,-0.1768070012331009
1685549015649924600,16.237924560546876,9.320205688476562,3.238703727722168,0.13995546102523804
1685549015669926100,16.257926025390624,9.094499588012695,3.3372490406036377,0.25838223099708557
1685549015689924600,16.277924560546875,8.727439880371094,3.047454833984375,0.08155608177185059
1685549015709924600,16.297924560546875,8.973937034606934,2.90773868560791,0.055296480655670166
1685549015729926100,16.317926025390626,9.281123161315918,2.668548583984375,-0.07482359558343887
1685549015749924600,16.337924560546874,9.481536865234375,2.651099681854248,-0.1358182728290558
1685549015769924600,16.357924560546873,10.375321388244629,2.6150619983673096,-0.2625002861022949
1685549015789924600,16.377924560546877,10.600242614746094,2.749778985977173,-0.3790021240711212
1685549015809924600,16.397924560546876,10.030900001525879,3.007117509841919,-0.40042543411254883
1685549015829924600,16.417924560546876,9.643518447875977,3.1139657497406006,-0.14509820938110352
1685549015849924600,16.437924560546875,9.23580551147461,3.2987406253814697,0.2120879739522934
1685549015869924600,16.457924560546875,8.669548034667969,3.1228723526000977,0.5038262605667114
1685549015889924600,16.477924560546874,9.01073169708252,2.8710310459136963,0.3822678327560425
1685549015909924600,16.497924560546874,9.728723526000977,2.4552061557769775,-0.1552400290966034
1685549015929926100,16.517926025390626,10.089606285095215,2.2894601821899414,-0.47803589701652527
1685549015949926100,16.537926025390625,10.23395824432373,2.3366165161132812,-0.5175976753234863
1685549015969926100,16.557926025390625,9.984673500061035,2.791303873062134,-0.1569925993680954
1685549015989924600,16.577924560546876,9.239511489868164,3.1221635341644287,0.2524254620075226
1685549016009924600,16.597924560546875,8.871225357055664,3.3346824645996094,0.24862347543239594
1685549016029940200,16.617940185546875,8.527504920959473,3.465846538543701,0.3119644820690155
1685549016049926100,16.637926025390627,8.481908798217773,3.35848069190979,0.34640267491340637
1685549016069926100,16.657926025390626,9.118498802185059,3.039123058319092,0.5661999583244324
1685549016089926100,16.677926025390626,9.414375305175781,2.780118227005005,0.42468351125717163
1685549016109926100,16.697926025390625,9.887843132019043,2.4605307579040527,-0.36577653884887695
1685549016129926100,16.717926025390625,10.568609237670898,2.4122252464294434,-0.5608465671539307
1685549016149926100,16.737926025390625,9.711590766906738,2.496070384979248,-0.4427070617675781
1685549016169926100,16.757926025390624,8.592377662658691,3.0443038940429688,0.012631808407604694
1685549016189924600,16.777924560546875,8.288736343383789,3.3723671436309814,0.5755181908607483
1685549016209924600,16.797924560546875,8.34558391571045,3.465587854385376,0.7748211026191711
1685549016229924600,16.817924560546874,8.996040344238281,3.252408266067505,0.4349115192890167
1685549016249924600,16.837924560546874,9.73227596282959,2.7873008251190186,0.017688361927866936
1685549016269924600,16.857924560546873,9.864216804504395,2.563931465148926,-0.48762229084968567
1685549016289924600,16.877924560546877,9.711590766906738,2.7136647701263428,0.017104176804423332
1685549016309924600,16.897924560546876,9.265810012817383,2.971759796142578,0.2739158272743225
1685549016329924600,16.917924560546876,9.45156192779541,2.8529882431030273,0.36969348788261414
1685549016349926100,16.937926025390624,9.574546813964844,2.894379138946533,-0.23726537823677063
1685549016369924600,16.957924560546875,9.507691383361816,2.8499045372009277,-0.3491607904434204
1685549016389924600,16.977924560546874,9.4418306350708,3.165862560272217,-0.04827668517827988
1685549016409924600,16.997924560546874,9.3029203414917,3.385659694671631,0.3344891369342804
1685549016429924600,17.017924560546874,9.835351943969727,3.4212090969085693,0.5500247478485107
1685549016449924600,17.037924560546877,9.693625450134277,3.433716297149658,0.722866952419281
1685549016469924600,17.057924560546876,9.617087364196777,2.890739917755127,0.33158737421035767
1685549016489926100,17.077926025390624,9.773744583129883,2.565281629562378,0.13422852754592896
1685549016509924600,17.097924560546875,9.608975410461426,2.2827563285827637,-0.41922473907470703
1685549016529926100,17.117926025390624,9.570141792297363,2.3112571239471436,-0.5357457399368286
1685549016549924600,17.137924560546875,9.56750774383545,2.728757858276367,-0.39372166991233826
1685549016569926100,17.157926025390626,8.768792152404785,3.134690046310425,0.06203855574131012
1685549016589924600,17.177924560546874,8.496016502380371,3.271121025085449,0.5156823396682739
1685549016609926100,17.197926025390625,8.855060577392578,3.4172346591949463,0.8226476907730103
1685549016629924600,17.217924560546876,9.230059623718262,3.184202194213867,0.804145336151123
1685549016649926100,17.237926025390625,9.69068431854248,2.4818198680877686,-0.11172302812337875
1685549016669924600,17.257924560546876,10.04807186126709,2.433974027633667,-0.5703850388526917
1685549016689924600,17.277924560546875,9.751803398132324,2.198432683944702,-0.6409373879432678
1685549016709924600,17.297924560546875,9.129225730895996,2.5469326972961426,-0.4191768169403076
1685549016729940200,17.317940185546874,8.948271751403809,3.1321425437927246,0.2894589900970459
1685549016749926100,17.337926025390626,9.216374397277832,3.364839792251587,0.4889151453971863
1685549016769926100,17.357926025390626,9.5181303024292,3.36494517326355,0.46186065673828125
1685549016789924600,17.377924560546877,9.116363525390625,2.999762535095215,0.271263062953949
1685549016809924600,17.397924560546876,8.646553993225098,3.052654981613159,0.3327557444572449
1685549016829926100,17.417926025390624,9.615228652954102,2.644941568374634,0.27815836668014526
1685549016849926100,17.437926025390624,9.546716690063477,2.8758862018585205,0.1495322585105896
1685549016869926100,17.457926025390623,9.738636016845703,2.5006861686706543,-0.22539971768856049
1685549016889926100,17.477926025390627,9.984088897705078,2.656501054763794,-0.4653753340244293
1685549016909926100,17.497926025390626,9.416260719299316,3.0885488986968994,0.06185659393668175
1685549016929924600,17.517924560546874,9.385854721069336,3.011944055557251,0.02578076347708702
1685549016949924600,17.537924560546877,9.174792289733887,3.262186050415039,0.32110077142715454
1685549016969924600,17.557924560546876,9.499799728393555,2.7820143699645996,0.2143576592206955
1685549016989924600,17.577924560546876,8.983905792236328,2.9659368991851807,-0.11047804355621338
1685549017009926100,17.597926025390624,9.5438814163208,2.611767530441284,-0.16804423928260803
1685549017029924600,17.617924560546875,9.656217575073242,2.645209789276123,-0.18311811983585358
1685549017049926100,17.637926025390627,9.676960945129395,2.853419303894043,0.13761872053146362
1685549017069924600,17.657924560546874,9.32203483581543,2.971893787384033,0.09676405042409897
1685549017089926100,17.677926025390626,9.685063362121582,2.9855504035949707,0.17198030650615692
1685549017109926100,17.697926025390625,9.198695182800293,3.044926404953003,-0.20672494173049927
1685549017129924600,17.717924560546876,8.60143756866455,2.9318339824676514,-0.24557806551456451
1685549017149924600,17.737924560546876,8.7622709274292,3.0088891983032227,0.29340463876724243
1685549017169924600,17.757924560546876,8.400362968444824,3.0737719535827637,0.4934162199497223
1685549017189926100,17.777926025390624,8.999200820922852,2.711874008178711,0.2504047751426697
1685549017209924600,17.797924560546875,10.152669906616211,2.814288377761841,-0.2436148077249527
1685549017229924600,17.817924560546874,10.42249584197998,2.504775285720825,-0.42521023750305176
1685549017249924600,17.837924560546874,9.714138984680176,2.5855367183685303,-0.46448472142219543
1685549017269926100,17.857926025390626,9.051202774047852,2.97786021232605,-0.14831601083278656
1685549017289926100,17.877926025390625,8.533069610595703,3.2356581687927246,0.5442690849304199
1685549017309926100,17.897926025390625,8.701505661010742,3.078655958175659,0.4038347899913788
1685549017329924600,17.917924560546876,9.018220901489258,2.6883533000946045,-0.14423628151416779
1685549017349926100,17.937926025390624,9.869704246520996,2.6187682151794434,-0.11737334728240967
1685549017369924600,17.957924560546875,10.107831001281738,2.7019906044006348,-0.29967743158340454
1685549017389924600,17.977924560546874,10.249625205993652,2.8583226203918457,-0.2151716947555542
1685549017409924600,17.997924560546874,9.997621536254883,3.098116159439087,-0.02651817910373211
1685549017429940200,18.017940185546873,9.471586227416992,3.0957412719726562,0.022352267056703568
1685549017449924600,18.037924560546877,9.217514038085938,3.150712013244629,0.12433568388223648
1685549017469924600,18.057924560546876,9.011622428894043,2.9621925354003906,-0.06572562456130981
1685549017489926100,18.077926025390624,9.099172592163086,2.762324571609497,0.07187393307685852
1685549017509926100,18.097926025390624,9.104995727539062,2.7800416946411133,0.053045932203531265
1685549017529924600,18.117924560546875,9.072185516357422,2.9718077182769775,-0.02343444712460041
1685549017549924600,18.137924560546875,9.815364837646484,2.6187584400177,0.23006363213062286
1685549017569924600,18.157924560546874,9.82845687866211,2.8490233421325684,-0.013005303218960762
1685549017589926100,18.177926025390626,9.71387004852295,2.6265063285827637,-0.08936118334531784
1685549017609926100,18.197926025390625,9.557193756103516,2.646531581878662,-0.4448043704032898
1685549017629924600,18.217924560546876,9.092775344848633,2.9868624210357666,-0.17013196647167206
1685549017649924600,18.237924560546876,9.080622673034668,2.9180338382720947,0.19508913159370422
1685549017669926100,18.257926025390624,9.23862075805664,3.0722298622131348,0.10061392933130264
1685549017689924600,18.277924560546875,9.42812728881836,2.9380781650543213,0.3453683853149414
1685549017709924600,18.297924560546875,9.488068580627441,2.722944736480713,0.09127654135227203
1685549017729924600,18.317924560546874,9.725515365600586,2.934190034866333,-0.2452428787946701
1685549017749924600,18.337924560546874,9.860002517700195,2.6413886547088623,0.0669323056936264
1685549017769924600,18.357924560546873,9.532533645629883,3.1098287105560303,0.15541242063045502
1685549017789924600,18.377924560546877,9.160628318786621,3.048881769180298,0.34846168756484985
1685549017809926100,18.397926025390625,9.270406723022461,2.9656593799591064,0.3504057824611664
1685549017829924600,18.417924560546876,9.148119926452637,2.8594717979431152,0.16122554242610931
1685549017849924600,18.437924560546875,9.615391731262207,2.6907379627227783,-0.18007269501686096
1685549017869924600,18.457924560546875,10.393487930297852,2.5218892097473145,-0.21190600097179413
1685549017889924600,18.477924560546874,9.744860649108887,2.5729622840881348,-0.28959304094314575
1685549017909926100,18.497926025390626,9.233440399169922,2.7424046993255615,-0.06225882098078728
1685549017929926100,18.517926025390626,9.810260772705078,2.9119715690612793,0.27817752957344055
1685549017949926100,18.537926025390625,9.47014045715332,2.867755651473999,0.3324684202671051
1685549017969926100,18.557926025390625,9.402719497680664,2.7103512287139893,0.06158844381570816
1685549017989926100,18.577926025390624,10.100667953491211,2.649049997329712,0.11430876702070236
1685549018009924600,18.597924560546875,9.7266263961792,2.587423324584961,-0.031220389530062675
1685549018029924600,18.617924560546875,9.370990753173828,2.4780561923980713,-0.09108500927686691
1685549018049924600,18.637924560546875,9.50894546508789,2.8643271923065186,0.27036282420158386
1685549018069926100,18.657926025390626,9.4995698928833,2.8498661518096924,0.5674737095832825
1685549018089924600,18.677924560546874,9.211958885192871,2.758943796157837,0.36896562576293945
1685549018109924600,18.697924560546873,9.726290702819824,2.412895441055298,0.08277233690023422
1685549018129941800,18.717941650390625,9.84415340423584,2.530259370803833,-0.17043842375278473
1685549018149924600,18.737924560546876,9.285901069641113,2.3368654251098633,-0.24971523880958557
1685549018169924600,18.757924560546876,9.349127769470215,2.517627716064453,-0.13785813748836517
1685549018189926100,18.777926025390624,9.12208080291748,2.952366590499878,0.14618037641048431
1685549018209924600,18.797924560546875,9.213443756103516,2.768932580947876,0.3763780891895294
1685549018229924600,18.817924560546874,9.48991584777832,2.7303764820098877,0.28854918479919434
1685549018249926100,18.837926025390626,9.731654167175293,2.580930233001709,0.254925012588501
1685549018269924600,18.857924560546873,9.474900245666504,2.343080759048462,-0.03206314891576767
1685549018289926100,18.877926025390625,9.23257827758789,2.4787838459014893,-0.3184000849723816
1685549018309924600,18.897924560546876,9.394857406616211,2.5081944465637207,-0.1695765256881714
1685549018329924600,18.917924560546876,8.92890739440918,2.7042124271392822,0.1434893012046814
1685549018349926100,18.937926025390624,8.741374015808105,2.930952787399292,0.416093111038208
1685549018369924600,18.957924560546875,9.348227500915527,2.8341314792633057,0.3534703552722931
1685549018389924600,18.977924560546874,9.753527641296387,2.41326904296875,-0.0986889973282814
1685549018409924600,18.997924560546874,9.305859565734863,2.259934902191162,-0.4918935298919678
1685549018429926100,19.017926025390626,8.997332572937012,2.4036636352539062,-0.5147533416748047
1685549018449924600,19.037924560546877,9.242576599121094,2.6342732906341553,0.054894257336854935
1685549018469926100,19.057926025390625,9.180001258850098,2.927716016769409,0.5074750185012817
1685549018489924600,19.077924560546876,9.317313194274902,2.6236045360565186,0.12451764196157455
1685549018509926100,19.097926025390624,9.503352165222168,2.347792387008667,-0.12231498211622238
1685549018529924600,19.117924560546875,9.457748413085938,2.251526355743408,-0.4232182204723358
1685549018549926100,19.137926025390627,9.60533618927002,2.4544684886932373,-0.16450080275535583
1685549018569924600,19.157924560546874,9.436391830444336,2.4454855918884277,-0.19970515370368958
1685549018589926100,19.177926025390626,9.24878215789795,2.7356724739074707,-0.03773261979222298
1685549018609924600,19.197924560546873,9.585895538330078,2.6437063217163086,0.023894133046269417
1685549018629926100,19.217926025390625,9.573789596557617,2.678077459335327,-0.17794664204120636
1685549018649924600,19.237924560546876,9.816983222961426,2.4951412677764893,-0.1287793219089508
1685549018669926100,19.257926025390624,9.769013404846191,2.468144178390503,-0.27066928148269653
1685549018689924600,19.277924560546875,9.597311019897461,2.4309864044189453,-0.21968236565589905
1685549018709924600,19.297924560546875,9.562078475952148,2.5623130798339844,-0.15359283983707428
1685549018729924600,19.317924560546874,9.476661682128906,2.505675792694092,-0.20738576352596283
1685549018749924600,19.337924560546874,9.528731346130371,2.4372973442077637,-0.2647029459476471
1685549018769926100,19.357926025390626,9.290660858154297,2.4297986030578613,-0.13939042389392853
1685549018789924600,19.377924560546877,9.055656433105469,2.5289855003356934,-0.07092583179473877
1685549018809926100,19.397926025390625,9.491180419921875,2.5629642009735107,-0.21916522085666656
1685549018829941800,19.417941650390624,10.172590255737305,2.555647373199463,-0.11594640463590622
1685549018849926100,19.437926025390624,9.698144912719727,2.3974387645721436,-0.28377994894981384
1685549018869935600,19.457935546875,9.613811492919922,2.4394328594207764,-0.5874509215354919
1685549018889926100,19.477926025390627,9.565583229064941,2.8001911640167236,-0.12574347853660583
1685549018909924600,19.497924560546874,9.351340293884277,2.5858817100524902,0.10731769353151321
1685549018929924600,19.517924560546874,8.825104713439941,2.6445298194885254,0.05552632361650467
1685549018949926100,19.537926025390625,9.157476425170898,2.4101853370666504,0.28053340315818787
1685549018969926100,19.557926025390625,9.012215614318848,2.4762654304504395,-0.5195609331130981
1685549018989924600,19.577924560546876,9.569681167602539,2.2058165073394775,-0.07644207030534744
1685549019009924600,19.597924560546875,9.552950859069824,2.219970941543579,-0.4057501554489136
1685549019029926100,19.617926025390624,8.48048210144043,2.6585023403167725,0.10559387505054474
1685549019049924600,19.637924560546875,9.689592361450195,2.3050034046173096,0.37929901480674744
1685549019069924600,19.657924560546874,10.218317985534668,2.5115270614624023,0.046054862439632416
1685549019089926100,19.677926025390626,10.443201065063477,2.165335178375244,-0.3524073362350464
1685549019109926100,19.697926025390625,10.469039916992188,1.9201018810272217,-1.0599322319030762
1685549019129924600,19.717924560546876,9.383833885192871,2.2800939083099365,-0.5465770959854126
1685549019149924600,19.737924560546876,8.799782752990723,2.515204668045044,0.13822203874588013
1685549019169924600,19.757924560546876,8.654369354248047,2.7966670989990234,0.44377967715263367
1685549019189924600,19.777924560546875,9.877450942993164,2.7499704360961914,0.6202802062034607
1685549019209924600,19.797924560546875,10.334744453430176,2.426274299621582,0.06791871786117554
1685549019229926100,19.817926025390626,10.380311012268066,2.340217351913452,-0.05503791198134422
1685549019249926100,19.837926025390626,10.250889778137207,2.044370412826538,-0.2755438983440399
1685549019269924600,19.857924560546873,9.561225891113281,2.5381698608398438,-0.13337619602680206
1685549019289924600,19.877924560546877,9.52204704284668,2.4813601970672607,0.011425131000578403
1685549019309924600,19.897924560546876,9.75218677520752,2.4678092002868652,-0.03184288367629051
1685549019329924600,19.917924560546876,9.635684967041016,2.5251550674438477,-0.1624130755662918
1685549019349926100,19.937926025390624,9.836223602294922,2.2275750637054443,-0.08487924188375473
1685549019369924600,19.957924560546875,10.122435569763184,2.1322567462921143,-0.35312560200691223
1685549019389924600,19.977924560546874,9.562747955322266,2.3740808963775635,-0.4677216708660126
1685549019409926100,19.997926025390626,9.228958129882812,2.1711580753326416,-0.13238020241260529
1685549019429924600,20.017924560546874,9.171478271484375,2.5467891693115234,0.05096776410937309
1685549019449926100,20.037926025390625,9.12377643585205,2.713827610015869,0.47160986065864563
1685549019469924600,20.057924560546876,9.534046173095703,2.2425336837768555,0.09436027705669403
1685549019489924600,20.077924560546876,9.501839637756348,2.370317220687866,-0.36308547854423523
1685549019509924600,20.097924560546875,9.451925277709961,2.1874959468841553,-0.03857537731528282
1685549019529941800,20.117941650390627,9.09047794342041,2.181673049926758,-0.19092321395874023
1685549019549924600,20.137924560546875,8.82632064819336,2.5543642044067383,0.2496769279241562
1685549019569924600,20.157924560546874,8.972357749938965,2.2681803703308105,0.2571564018726349
1685549019589926100,20.177926025390626,8.972529411315918,2.18050479888916,-0.11230721324682236
1685549019609926100,20.197926025390625,9.378049850463867,2.0720572471618652,-0.0872064083814621
1685549019629924600,20.217924560546876,9.584095001220703,1.8312100172042847,-0.4725196659564972
1685549019649924600,20.237924560546876,8.984079360961914,2.22440505027771,-0.08185296505689621
1685549019669926100,20.257926025390624,9.515295028686523,2.1907713413238525,0.10357316583395004
1685549019689924600,20.277924560546875,9.48823070526123,2.5469231605529785,-0.014346056617796421
1685549019709926100,20.297926025390623,9.78597354888916,2.3280930519104004,-0.06591715663671494
1685549019729924600,20.317924560546874,9.89974594116211,2.082016944885254,-0.22854092717170715
1685549019749924600,20.337924560546874,9.654034614562988,2.3125498294830322,-0.19210116565227509
1685549019769924600,20.357924560546873,9.586987495422363,2.3335230350494385,-0.08592311292886734
1685549019789924600,20.377924560546877,9.703009605407715,2.349497079849243,-0.027150247246026993
1685549019809926100,20.397926025390625,9.484563827514648,2.3458962440490723,-0.21982601284980774
1685549019829926100,20.417926025390624,9.276976585388184,2.2658915519714355,-0.23738031089305878
1685549019849926100,20.437926025390624,9.435261726379395,2.455292224884033,0.16951905190944672
1685549019869924600,20.457924560546875,9.701094627380371,2.423496961593628,0.4208432137966156
1685549019889924600,20.477924560546874,9.927030563354492,2.3040072917938232,-0.006224924698472023
1685549019909924600,20.497924560546874,9.876320838928223,2.04158353805542,-0.454093873500824
1685549019929926100,20.517926025390626,9.347930908203125,1.9479894638061523,-0.5230564475059509
1685549019949926100,20.537926025390625,8.967424392700195,2.1220383644104004,-0.30809545516967773
1685549019969926100,20.557926025390625,9.184158325195312,2.272786855697632,-0.00274854339659214
1685549019989924600,20.577924560546876,9.282204627990723,2.4879872798919678,0.14327861368656158
1685549020009924600,20.597924560546875,9.288238525390625,2.366697072982788,0.00012449848873075098
1685549020029924600,20.617924560546875,9.28572940826416,2.2119455337524414,0.040653545409440994
1685549020049926100,20.637926025390627,8.940638542175293,2.1273438930511475,0.02483266033232212
1685549020069926100,20.657926025390626,8.817116737365723,1.9764901399612427,-0.0652850940823555
1685549020089926100,20.677926025390626,9.253561019897461,2.0681400299072266,0.044991835951805115
1685549020109926100,20.697926025390625,9.162839889526367,2.0945241451263428,0.004625597503036261
1685549020129924600,20.717924560546876,9.142106056213379,2.001159906387329,0.051101841032505035
1685549020149926100,20.737926025390625,9.322063446044922,2.030484199523926,-0.050086699426174164
1685549020169926100,20.757926025390624,9.647483825683594,2.0981154441833496,0.23637473583221436
1685549020189926100,20.777926025390624,9.884625434875488,1.923511266708374,-0.16904021799564362
1685549020209926100,20.797926025390623,9.741460800170898,2.157127857208252,-0.16602352261543274
1685549020229941800,20.817941650390626,10.015568733215332,1.8492047786712646,-0.14491625130176544
1685549020249924600,20.837924560546874,9.552778244018555,2.257052183151245,-0.1714344173669815
1685549020269926100,20.857926025390626,9.614031791687012,2.170612096786499,-0.029343336820602417
1685549020289926100,20.877926025390625,9.783646583557129,2.503788948059082,-0.12200852483510971
1685549020309924600,20.897924560546876,10.1384859085083,2.425690174102783,0.26967331767082214
1685549020329924600,20.917924560546876,10.092670440673828,2.5191597938537598,0.3594558835029602
1685549020349924600,20.937924560546875,9.730582237243652,2.4453227519989014,0.3432040214538574
1685549020369924600,20.957924560546875,9.984395980834961,2.1764345169067383,-0.04699338972568512
1685549020389924600,20.977924560546874,10.115099906921387,2.0862786769866943,-0.3034028112888336
1685549020409924600,20.997924560546874,9.891021728515625,2.189736843109131,-0.015466542914509773
1685549020429924600,21.017924560546874,9.112072944641113,2.2622716426849365,0.33740049600601196
1685549020449926100,21.037926025390625,8.909974098205566,2.479722738265991,0.694193959236145
1685549020469924600,21.057924560546876,9.474458694458008,2.423362970352173,0.5694369673728943
1685549020489926100,21.077926025390624,10.063519477844238,2.095137119293213,0.08934203535318375
1685549020509926100,21.097926025390624,9.946922302246094,1.9161466360092163,-0.44892239570617676
1685549020529924600,21.117924560546875,9.327216148376465,1.989035725593567,-0.6645633578300476
1685549020549924600,21.137924560546875,8.913661003112793,2.3281121253967285,-0.08466854691505432
1685549020569926100,21.157926025390626,9.21927547454834,2.39760160446167,0.4707287847995758
1685549020589924600,21.177924560546874,9.528243064880371,2.5103683471679688,0.5216773748397827
1685549020609926100,21.197926025390625,9.321833610534668,2.1893632411956787,0.0537833496928215
1685549020629924600,21.217924560546876,9.192126274108887,1.800142765045166,-0.48562073707580566
1685549020649926100,21.237926025390625,9.231868743896484,1.6561650037765503,-0.5853248238563538
1685549020669924600,21.257924560546876,8.938655853271484,1.8526619672775269,-0.6798383593559265
1685549020689924600,21.277924560546875,8.73307991027832,2.462953567504883,-0.06906793266534805
1685549020709924600,21.297924560546875,9.491842269897461,2.5096023082733154,0.2053363174200058
1685549020729926100,21.317926025390626,9.601056098937988,2.7468197345733643,0.4565551280975342
1685549020749924600,21.337924560546874,9.51608943939209,2.4294731616973877,0.19439959526062012
1685549020769924600,21.357924560546873,9.684287071228027,2.076136827468872,-0.5292621850967407
1685549020789924600,21.377924560546877,9.720717430114746,2.083099126815796,-0.7996824979782104
1685549020809926100,21.397926025390625,9.932584762573242,1.8812679052352905,-0.979084849357605
1685549020829924600,21.417924560546876,9.598872184753418,2.3667447566986084,-0.5653572678565979
1685549020849924600,21.437924560546875,9.334637641906738,2.506192922592163,0.01808101125061512
1685549020869926100,21.457926025390623,9.541622161865234,2.587691307067871,-0.0409887321293354
1685549020889926100,21.477926025390627,9.739296913146973,2.5909571647644043,-0.18923769891262054
1685549020909924600,21.497924560546874,9.841547966003418,2.320814609527588,-0.5613157749176025
1685549020929940200,21.517940185546873,9.837228775024414,2.078397035598755,-0.8187978267669678
1685549020949924600,21.537924560546877,9.439302444458008,2.3246166706085205,-0.3442000150680542
1685549020969926100,21.557926025390625,9.482254981994629,2.3160836696624756,-0.27075549960136414
1685549020989924600,21.577924560546876,9.642714500427246,2.399880886077881,-0.0988134890794754
1685549021009924600,21.597924560546875,9.776368141174316,2.2315778732299805,-0.2346126139163971
1685549021029924600,21.617924560546875,9.483681678771973,1.9959022998809814,-0.6627724766731262
1685549021049924600,21.637924560546875,9.36154842376709,1.930684208869934,-0.6964541077613831
1685549021069924600,21.657924560546874,9.39083480834961,1.973530888557434,-0.35636255145072937
1685549021089926100,21.677926025390626,9.353342056274414,2.2941815853118896,-0.19889113306999207
1685549021109924600,21.697924560546873,9.655183792114258,2.4264755249023438,0.11286266893148422
1685549021129924600,21.717924560546876,9.630292892456055,2.2358107566833496,-0.23543621599674225
1685549021149924600,21.737924560546876,9.124886512756348,2.1217129230499268,-0.30281862616539
1685549021169924600,21.757924560546876,9.333824157714844,2.11971116065979,-0.14415010809898376
1685549021189926100,21.777926025390624,9.466951370239258,2.221512794494629,0.017458518967032433
1685549021209926100,21.797926025390623,9.408878326416016,2.1684188842773438,0.04558560252189636
1685549021229926100,21.817926025390626,9.798107147216797,2.10017466545105,-0.08761820197105408
1685549021249926100,21.837926025390626,10.067886352539062,2.167959213256836,-0.07851066440343857
1685549021269926100,21.857926025390626,10.117589950561523,2.0518691539764404,-0.0344860814511776
1685549021289924600,21.877924560546877,9.677152633666992,2.2085936069488525,-0.1321312040090561
1685549021309924600,21.897924560546876,9.449541091918945,2.415931463241577,0.039398983120918274
1685549021329924600,21.917924560546876,9.395355224609375,2.4162282943725586,0.43087971210479736
1685549021349926100,21.937926025390624,9.243074417114258,2.4463186264038086,0.22620417177677155
1685549021369924600,21.957924560546875,9.818256378173828,2.3729028701782227,0.6011936068534851
1685549021389924600,21.977924560546874,10.118528366088867,2.2200093269348145,0.442017525434494
1685549021409924600,21.997924560546874,9.730725288391113,2.1210615634918213,0.3466804325580597
1685549021429926100,22.017926025390626,10.089902877807617,1.9683977365493774,-0.19700448215007782
1685549021449926100,22.037926025390625,10.14842700958252,2.01570725440979,-0.1733306348323822
1685549021469924600,22.057924560546876,9.796192169189453,2.055077314376831,0.014844050630927086
1685549021489924600,22.077924560546876,9.036023139953613,2.3152408599853516,0.413507342338562
1685549021509924600,22.097924560546875,9.03339958190918,2.602736473083496,0.9087623357772827
1685549021529926100,22.117926025390624,9.429045677185059,2.472377300262451,1.0209258794784546
1685549021549924600,22.137924560546875,9.821599960327148,2.2072529792785645,0.4086902141571045
1685549021569924600,22.157924560546874,9.882220268249512,2.1373040676116943,0.29205429553985596
1685549021589924600,22.177924560546874,9.522754669189453,1.8417348861694336,-0.215382382273674
1685549021609924600,22.197924560546873,9.15157699584961,1.9092321395874023,-0.1963149607181549
1685549021629941800,22.217941650390625,9.542540550231934,2.166283130645752,0.5992399454116821
1685549021649924600,22.237924560546876,9.745329856872559,2.4658074378967285,0.8283554911613464
1685549021669924600,22.257924560546876,9.914188385009766,2.4709596633911133,0.7373949289321899
1685549021689924600,22.277924560546875,9.75125789642334,1.9157156944274902,-0.06789956241846085
1685549021709926100,22.297926025390623,8.893827438354492,1.8954799175262451,-0.2847663462162018
1685549021729926100,22.317926025390626,8.302191734313965,1.889312505722046,-0.34623029828071594
1685549021749926100,22.337926025390626,8.431190490722656,2.090243339538574,0.01791820488870144
1685549021769924600,22.357924560546873,9.526117324829102,2.3474860191345215,0.3787914514541626
1685549021789924600,22.377924560546877,10.47559928894043,2.402456760406494,0.6712670922279358
1685549021809924600,22.397924560546876,9.929750442504883,2.242600917816162,0.19417934119701385
1685549021829926100,22.417926025390624,9.006948471069336,1.8791801929473877,-0.6531382203102112
1685549021849926100,22.437926025390624,9.050619125366211,1.695774793624878,-0.7766023874282837
1685549021869926100,22.457926025390623,9.226507186889648,1.92416250705719,-0.41697418689727783
1685549021889926100,22.477926025390627,9.153061866760254,2.091785430908203,-0.17284220457077026
1685549021909926100,22.497926025390626,9.005617141723633,2.3855347633361816,-0.08684248477220535
1685549021929926100,22.517926025390626,8.736720085144043,2.3621578216552734,-0.05476975813508034
1685549021949926100,22.537926025390625,9.461932182312012,2.4335432052612305,0.16383042931556702
1685549021969926100,22.557926025390625,10.265790939331055,2.527817487716675,0.4317607581615448
1685549021989926100,22.577926025390624,10.313790321350098,2.1138694286346436,0.1568489372730255
1685549022009926100,22.597926025390624,9.7526273727417,2.0454046726226807,-0.34885433316230774
1685549022029926100,22.617926025390624,9.665727615356445,1.753906011581421,-0.4977162182331085
1685549022049926100,22.637926025390627,9.432867050170898,1.738631010055542,-0.06708553433418274
1685549022069926100,22.657926025390626,9.119868278503418,2.1254382133483887,0.28083986043930054
1685549022089926100,22.677926025390626,9.936166763305664,2.2381861209869385,0.15425363183021545
1685549022109926100,22.697926025390625,10.305429458618164,2.028243064880371,-0.2987484633922577
1685549022129926100,22.717926025390625,9.378192901611328,2.0247955322265625,-0.8885073661804199
1685549022149926100,22.737926025390625,9.41946029663086,2.1935389041900635,-0.7529764175415039
1685549022169926100,22.757926025390624,9.75232982635498,2.639789342880249,-0.13478398323059082
1685549022189926100,22.777926025390624,8.880697250366211,2.8326950073242188,0.5730569362640381
1685549022209926100,22.797926025390623,9.52627944946289,2.6603314876556396,0.8354039788246155
1685549022229924600,22.817924560546874,10.139213562011719,2.3928513526916504,0.26382187008857727
1685549022249926100,22.837926025390626,9.402422904968262,1.8450101613998413,-0.7815823554992676
1685549022269926100,22.857926025390626,9.593738555908203,1.3867887258529663,-1.6150614023208618
1685549022289926100,22.877926025390625,9.878437042236328,1.776784896850586,-1.1991024017333984
1685549022309926100,22.897926025390625,8.737313270568848,2.5153005123138428,-0.3547249138355255
1685549022329941800,22.917941650390624,8.464767456054688,2.8026909828186035,0.5302869081497192
1685549022349926100,22.937926025390624,8.976025581359863,2.9176700115203857,0.583763837814331
1685549022369924600,22.957924560546875,9.520523071289062,2.6231448650360107,0.3971118628978729
1685549022389924600,22.977924560546874,9.953817367553711,2.3166680335998535,-0.34537795186042786
1685549022409924600,22.997924560546874,10.164583206176758,1.8354045152664185,-1.0208109617233276
1685549022429924600,23.017924560546874,9.892544746398926,1.639635443687439,-1.2503384351730347
1685549022449924600,23.037924560546877,8.945197105407715,1.914135456085205,-0.7753095626831055
1685549022469924600,23.057924560546876,8.615525245666504,2.3797695636749268,0.044158656150102615
1685549022489926100,23.077926025390624,9.35995864868164,2.576706886291504,0.22290976345539093
1685549022509924600,23.097924560546875,10.102411270141602,2.560838222503662,-0.06375280022621155
1685549022529924600,23.117924560546875,10.317476272583008,2.157003402709961,-0.6073323488235474
1685549022549924600,23.137924560546875,10.30013370513916,2.0309629440307617,-0.5845203995704651
1685549022569924600,23.157924560546874,9.988762855529785,2.2090916633605957,-0.20561404526233673
1685549022589924600,23.177924560546874,9.672316551208496,2.319598436355591,0.12191274762153625
1685549022609924600,23.197924560546873,9.747034072875977,2.2428019046783447,0.17185580730438232
1685549022629924600,23.217924560546876,9.837084770202637,2.2099056243896484,0.10121726989746094
1685549022649924600,23.237924560546876,9.976513862609863,1.8798409700393677,-0.3935397267341614
1685549022669924600,23.257924560546876,10.376307487487793,1.8122191429138184,-0.7051594257354736
1685549022689924600,23.277924560546875,10.067397117614746,2.1061887741088867,-0.395751953125
1685549022709924600,23.297924560546875,9.535109519958496,2.205021381378174,-0.042645517736673355
1685549022729924600,23.317924560546874,9.300372123718262,2.5526881217956543,0.4605582356452942
1685549022749924600,23.337924560546874,9.301405906677246,2.6122751235961914,0.5847311019897461
1685549022769924600,23.357924560546873,9.873735427856445,2.179279088973999,0.16958609223365784
1685549022789924600,23.377924560546877,9.611876487731934,1.928864598274231,-0.09388143569231033
1685549022809924600,23.397924560546876,8.967205047607422,1.7957757711410522,-0.28480464220046997
1685549022829924600,23.417924560546876,9.025824546813965,1.7661930322647095,-0.10392750799655914
1685549022849924600,23.437924560546875,9.257046699523926,2.0384902954101562,0.26290249824523926
1685549022869924600,23.457924560546875,9.129646301269531,2.1173458099365234,0.39712145924568176
1685549022889924600,23.477924560546874,8.996624946594238,1.9878194332122803,0.1696626991033554
1685549022909924600,23.497924560546874,9.48027229309082,1.8934687376022339,0.0870819017291069
1685549022929924600,23.517924560546874,9.533519744873047,1.975254774093628,0.17942148447036743
1685549022949924600,23.537924560546877,9.271479606628418,1.9398205280303955,0.09662998467683792
1685549022969924600,23.557924560546876,9.198446273803711,2.0411622524261475,-0.1634760946035385
1685549022989924600,23.577924560546876,9.147257804870605,2.1009984016418457,0.1105642318725586
1685549023009924600,23.597924560546875,8.940485000610352,2.3318662643432617,0.8148905038833618
1685549023029940200,23.617940185546875,8.726789474487305,2.0614078044891357,0.6804800033569336
1685549023049924600,23.637924560546875,10.247624397277832,1.817764163017273,0.7995388507843018
1685549023069924600,23.657924560546874,10.565995216369629,1.9207721948623657,0.5158451199531555
1685549023089924600,23.677924560546874,9.680638313293457,1.77349054813385,-0.000823605339974165
1685549023109924600,23.697924560546873,9.808594703674316,1.724237084388733,-0.12968911230564117
1685549023129924600,23.717924560546876,9.064189910888672,1.9795738458633423,-0.06483498215675354
1685549023149924600,23.737924560546876,8.68382740020752,2.1480298042297363,0.6832572817802429
1685549023169924600,23.757924560546876,8.904916763305664,2.65531325340271,0.9517238736152649
1685549023189924600,23.777924560546875,9.94624137878418,2.3007800579071045,0.6728855967521667
1685549023209924600,23.797924560546875,10.367152214050293,2.0498387813568115,0.3883107900619507
1685549023229924600,23.817924560546874,10.067349433898926,1.7200136184692383,-0.23074357211589813
1685549023249924600,23.837924560546874,9.778303146362305,1.4299895763397217,-0.519580066204071
1685549023269924600,23.857924560546873,8.804638862609863,1.7368783950805664,-0.7045561075210571
1685549023289924600,23.877924560546877,8.592329978942871,2.19783878326416,-0.5302582383155823
1685549023309924600,23.897924560546876,9.267122268676758,2.2927067279815674,0.10998004674911499
1685549023329924600,23.917924560546876,9.8363676071167,2.470576763153076,0.6259209513664246
1685549023349924600,23.937924560546875,9.669644355773926,2.4515092372894287,0.574129581451416
1685549023369924600,23.957924560546875,9.65966510772705,2.1876108646392822,0.07656657695770264
1685549023389924600,23.977924560546874,9.53681468963623,1.7782405614852905,-0.3166954219341278
1685549023409924600,23.997924560546874,9.22434139251709,1.344938039779663,-0.6868293881416321
1685549023429924600,24.017924560546874,8.689477920532227,1.5510978698730469,-0.8271391987800598
1685549023449924600,24.037924560546877,9.238860130310059,1.9246701002120972,-0.11884817481040955
1685549023469924600,24.057924560546876,9.728569984436035,2.23786997795105,0.20977994799613953
1685549023489924600,24.077924560546876,9.544445991516113,2.3502919673919678,0.2437393069267273
1685549023509924600,24.097924560546875,9.49008846282959,2.36971378326416,-0.19473478198051453
1685549023529924600,24.117924560546875,9.796220779418945,2.221780776977539,-0.48903006315231323
1685549023549924600,24.137924560546875,9.406445503234863,2.2101545333862305,-0.5192736387252808
1685549023569924600,24.157924560546874,9.310791969299316,2.1831672191619873,-0.33520740270614624
1685549023589924600,24.177924560546874,9.575150489807129,2.211658239364624,0.21620599925518036
1685549023609924600,24.197924560546873,9.83366584777832,2.1043307781219482,0.4015842378139496
1685549023629924600,24.217924560546876,9.97634220123291,2.1584205627441406,-0.04823837801814079
1685549023649924600,24.237924560546876,10.38205337524414,1.9107836484909058,-0.45650723576545715
1685549023669924600,24.257924560546876,10.3715181350708,1.5662388801574707,-1.109089970588684
1685549023689924600,24.277924560546875,9.592072486877441,1.843535304069519,-1.242437481880188
1685549023709924600,24.297924560546875,9.168346405029297,2.2343742847442627,-0.7579563856124878
1685549023729940200,24.317940185546874,9.736480712890625,2.3307266235351562,-0.02094447799026966
1685549023749924600,24.337924560546874,9.729720115661621,2.7528722286224365,0.49663403630256653
1685549023769924600,24.357924560546873,10.182942390441895,2.5176944732666016,0.40597042441368103
1685549023789924600,24.377924560546877,10.451513290405273,2.0117039680480957,-0.3938174545764923
1685549023809924600,24.397924560546876,9.602338790893555,1.5010590553283691,-0.8989269137382507
1685549023829924600,24.417924560546876,8.830657958984375,1.3602705001831055,-0.9810768365859985
1685549023849924600,24.437924560546875,9.232348442077637,1.8140674829483032,-0.4929374158382416
1685549023869924600,24.457924560546875,9.486594200134277,2.2657480239868164,0.07222828269004822
1685549023889926100,24.477926025390627,9.452548027038574,2.2792418003082275,0.14104720950126648
1685549023909926100,24.497926025390626,9.464949607849121,2.4158451557159424,0.22941240668296814
1685549023929926100,24.517926025390626,9.36231517791748,1.913034200668335,-0.049751508980989456
1685549023949926100,24.537926025390625,9.093962669372559,1.7180887460708618,-0.35181355476379395
1685549023969926100,24.557926025390625,9.355055809020996,1.7576218843460083,-0.410088449716568
1685549023989926100,24.577926025390624,9.557021141052246,1.8021060228347778,-0.5044008493423462
1685549024009926100,24.597926025390624,9.469393730163574,1.9323697090148926,-0.528457760810852
1685549024029924600,24.617924560546875,9.252076148986816,2.089860439300537,-0.39469853043556213
1685549024049924600,24.637924560546875,9.333584785461426,2.240561008453369,0.024756046012043953
1685549024069924600,24.657924560546874,9.883101463317871,2.433485746383667,0.4679323434829712
1685549024089924600,24.677924560546874,10.112178802490234,2.4767537117004395,0.3893163502216339
1685549024109924600,24.697924560546873,10.297605514526367,2.1263959407806396,0.07624095678329468
1685549024129924600,24.717924560546876,10.005952835083008,1.959682822227478,-0.2624523937702179
1685549024149924600,24.737924560546876,9.69228458404541,1.8542613983154297,-0.12401964515447617
1685549024169924600,24.757924560546876,9.655279159545898,1.9618854522705078,-0.0249954666942358
1685549024189924600,24.777924560546875,9.541909217834473,2.247494697570801,0.19580738246440887
1685549024209924600,24.797924560546875,9.883456230163574,2.203700065612793,0.18783949315547943
1685549024229924600,24.817924560546874,10.00282096862793,2.1804187297821045,-0.14748281240463257
1685549024249924600,24.837924560546874,9.940428733825684,2.3676259517669678,0.08426631987094879
1685549024269926100,24.857926025390626,9.873113632202148,2.1579225063323975,0.127946138381958
1685549024289924600,24.877924560546877,9.512210845947266,2.2774317264556885,0.24098119139671326
1685549024309924600,24.897924560546876,9.170912742614746,2.202014446258545,0.4935503304004669
1685549024329924600,24.917924560546876,8.920622825622559,1.8960354328155518,0.38308185338974
1685549024349924600,24.937924560546875,9.180585861206055,1.699212908744812,0.4790797829627991
1685549024369924600,24.957924560546875,9.258013725280762,1.6148698329925537,0.21553561091423035
1685549024389924600,24.977924560546874,9.119964599609375,1.4209107160568237,-0.5222041010856628
1685549024409924600,24.997924560546874,9.607586860656738,1.4972283840179443,-1.0249481201171875
1685549024429940200,25.017940185546873,9.689391136169434,1.7695257663726807,-0.7734899520874023
1685549024449924600,25.037924560546877,8.836069107055664,2.2195208072662354,-0.15373648703098297
1685549024469924600,25.057924560546876,8.895580291748047,2.54699969291687,0.49342581629753113
1685549024489926100,25.077926025390624,9.483940124511719,2.9518017768859863,1.0951844453811646
1685549024509924600,25.097924560546875,9.087584495544434,2.4648404121398926,0.8549789786338806
1685549024529924600,25.117924560546875,9.333900451660156,1.802833914756775,0.013512874953448772
1685549024549924600,25.137924560546875,9.786893844604492,1.5648598670959473,-0.5477646589279175
1685549024569924600,25.157924560546874,9.681739807128906,1.4951311349868774,-0.555502712726593
1685549024589924600,25.177924560546874,9.970394134521484,1.7712974548339844,-0.005583278369158506
1685549024609924600,25.197924560546873,10.100495338439941,2.0947158336639404,0.41337329149246216
