time,seconds_elapsed,z,y,x
1686353862881248300,0.072248291015625,8.795501708984375,3.7398674488067627,0.12237243354320526
1686353862901248300,0.092248291015625,9.20652961730957,3.9459986686706543,0.25141990184783936
1686353862921248300,0.112248291015625,8.724921226501465,4.002712726593018,0.3559316098690033
1686353862941248300,0.132248291015625,8.098052024841309,3.9368338584899902,0.1080646887421608
1686353862961251300,0.152251220703125,9.159889221191406,4.164694786071777,0.7361882925033569
1686353862981248300,0.172248291015625,7.920315742492676,3.909022808074951,0.3219722509384155
1686353863001248300,0.192248291015625,7.862567901611328,3.8020784854888916,0.1435946375131607
1686353863021248300,0.212248291015625,9.595873832702637,3.8303301334381104,0.32384929060935974
1686353863041248300,0.232248291015625,9.165349006652832,3.78405499458313,0.44210368394851685
1686353863061249800,0.252249755859375,8.470484733581543,3.7637808322906494,0.07667191326618195
1686353863081248300,0.272248291015625,10.148780822753906,4.02323579788208,0.8101691007614136
1686353863101248300,0.292248291015625,8.302506446838379,3.662870168685913,0.38738182187080383
1686353863121248300,0.312248291015625,8.804312705993652,3.768770217895508,0.11325531452894211
1686353863141248300,0.332248291015625,9.284829139709473,3.8909800052642822,0.5884756445884705
1686353863161253000,0.352253173828125,7.874098777770996,3.6975953578948975,0.3085263967514038
1686353863181248300,0.372248291015625,8.65787410736084,3.7234911918640137,0.30348899960517883
1686353863201248300,0.392248291015625,8.927433013916016,3.715829849243164,0.4473039209842682
1686353863221248300,0.412248291015625,8.846076965332031,3.744837999343872,0.3571861684322357
1686353863241248300,0.432248291015625,8.484705924987793,3.598083019256592,0.21532492339611053
1686353863261248300,0.452248291015625,9.423501014709473,3.709221601486206,0.41782650351524353
1686353863281248300,0.472248291015625,9.108501434326172,3.633986234664917,0.5561730265617371
1686353863301248300,0.492248291015625,8.983724594116211,3.6524791717529297,0.42430999875068665
1686353863321248300,0.512248291015625,9.146061897277832,3.6729736328125,0.5091030597686768
1686353863341248300,0.532248291015625,8.761093139648438,3.6447315216064453,0.4227777123451233
1686353863361249800,0.552249755859375,8.933341026306152,3.6538102626800537,0.2922554016113281
1686353863381248300,0.572248291015625,8.65192699432373,3.548867702484131,0.2205251306295395
1686353863401248300,0.592248291015625,9.02229118347168,3.6090292930603027,0.24297316372394562
1686353863421248300,0.612248291015625,9.145821571350098,3.6834986209869385,0.4436360001564026
1686353863441248300,0.632248291015625,8.314334869384766,3.5933425426483154,0.16327497363090515
1686353863461246700,0.652246826171875,9.056317329406738,3.6181461811065674,0.35225412249565125
1686353863481246700,0.672246826171875,8.961612701416016,3.609527111053467,0.5058852434158325
1686353863501246700,0.692246826171875,8.164658546447754,3.516986608505249,0.25981876254081726
1686353863521248300,0.712248291015625,9.598440170288086,3.651703357696533,0.5137478113174438
1686353863541248300,0.732248291015625,8.29208755493164,3.4622740745544434,0.38282325863838196
1686353863561248300,0.752248291015625,9.241398811340332,3.7076895236968994,0.4267329275608063
1686353863581248300,0.772248291015625,9.489208221435547,3.753753900527954,0.6360052824020386
1686353863601248300,0.792248291015625,8.579803466796875,3.6634349822998047,0.4149247407913208
1686353863621248300,0.812248291015625,8.557422637939453,3.720541477203369,0.5082315802574158
1686353863641248300,0.832248291015625,8.736767768859863,3.719670057296753,0.36325788497924805
1686353863661248300,0.852248291015625,8.752578735351562,3.5201852321624756,0.023166295140981674
1686353863681246700,0.872246826171875,9.525599479675293,3.484243392944336,0.14332649111747742
1686353863701246700,0.892246826171875,8.839422225952148,3.416477918624878,0.27300605177879333
1686353863721246700,0.912246826171875,9.230050086975098,3.570223808288574,0.331118106842041
1686353863741246700,0.932246826171875,8.748106002807617,3.4419522285461426,0.29757052659988403
1686353863761248300,0.952248291015625,8.678511619567871,3.566441059112549,0.24162283539772034
1686353863781248300,0.972248291015625,8.767845153808594,3.6093931198120117,0.5259391069412231
1686353863801248300,0.992248291015625,8.527341842651367,3.5771095752716064,0.3057299852371216
1686353863821248300,1.012248291015625,8.694849967956543,3.536954164505005,0.37275806069374084
1686353863841248300,1.032248291015625,8.626423835754395,3.6519620418548584,0.30945536494255066
1686353863861248300,1.052248291015625,9.55463695526123,3.7883358001708984,0.4797118306159973
1686353863881248300,1.072248291015625,9.14144515991211,3.715456247329712,0.4366928040981293
1686353863901248300,1.092248291015625,8.187671661376953,3.692107915878296,0.2986910343170166
1686353863921248300,1.112248291015625,8.428135871887207,3.7052571773529053,0.29935184121131897
1686353863941248300,1.132248291015625,8.98313045501709,3.6341302394866943,0.33722808957099915
1686353863961248300,1.152248291015625,8.621865272521973,3.54879093170166,0.2463250458240509
1686353863981248300,1.172248291015625,8.667162895202637,3.523833990097046,0.13359645009040833
1686353864001248300,1.192248291015625,9.461980819702148,3.6003623008728027,0.35911110043525696
1686353864021248300,1.212248291015625,8.883149147033691,3.6761720180511475,0.33249714970588684
1686353864041248300,1.232248291015625,8.661197662353516,3.715695858001709,0.3284270167350769
1686353864061248300,1.252248291015625,8.580339431762695,3.6753103733062744,0.2978099584579468
1686353864081248300,1.272248291015625,8.993234634399414,3.725473642349243,0.48055461049079895
1686353864101246700,1.292246826171875,9.15131950378418,3.7362475395202637,0.5216199159622192
1686353864121246700,1.312246826171875,8.397777557373047,3.618232488632202,0.1897069662809372
1686353864141248300,1.332248291015625,10.12700366973877,3.7982382774353027,0.5872689485549927
1686353864161248300,1.352248291015625,8.40946102142334,3.679964542388916,0.4564497768878937
1686353864181248300,1.372248291015625,8.190707206726074,3.734351396560669,0.22931663691997528
1686353864201248300,1.392248291015625,9.454309463500977,3.750765800476074,0.5718598365783691
1686353864221248300,1.412248291015625,7.808496952056885,3.501596689224243,0.06295792758464813
1686353864241248300,1.432248291015625,9.477160453796387,3.6545190811157227,0.1377815306186676
1686353864261248300,1.452248291015625,9.759350776672363,3.507237195968628,0.398998498916626
1686353864281248300,1.472248291015625,8.43137264251709,3.562256097793579,0.1259254366159439
1686353864301248300,1.492248291015625,9.310839653015137,3.7121713161468506,0.44787850975990295
1686353864321246700,1.512246826171875,8.564308166503906,3.8096344470977783,0.5745126605033875
1686353864341248300,1.532248291015625,8.444723129272461,3.9366519451141357,0.5370385646820068
1686353864361248300,1.552248291015625,8.872575759887695,3.7171993255615234,0.4952071011066437
1686353864381248300,1.572248291015625,8.384772300720215,3.650927782058716,0.25058671832084656
1686353864401248300,1.592248291015625,9.465169906616211,3.7831737995147705,0.503328263759613
1686353864421246700,1.612246826171875,8.373298645019531,3.47989559173584,0.26081475615501404
1686353864441248300,1.632248291015625,9.68961238861084,3.8215291500091553,0.5756810307502747
1686353864461248300,1.652248291015625,8.79098129272461,3.699252128601074,0.6007627248764038
1686353864481248300,1.672248291015625,8.795013427734375,3.6445305347442627,0.2864997684955597
1686353864501248300,1.692248291015625,9.395910263061523,3.730012893676758,0.595370888710022
1686353864521248300,1.712248291015625,8.065299034118652,3.645660400390625,0.3408289849758148
1686353864541248300,1.732248291015625,8.171975135803223,3.5825014114379883,0.10040324181318283
1686353864561248300,1.752248291015625,10.283086776733398,3.84450364112854,0.46829625964164734
1686353864581248300,1.772248291015625,8.00656509399414,3.5213918685913086,0.2630174160003662
1686353864601246700,1.792246826171875,9.23122787475586,3.744253635406494,0.38507381081581116
1686353864621248300,1.812248291015625,9.432207107543945,3.836526393890381,0.7259506583213806
1686353864641246700,1.832246826171875,7.900501251220703,3.741830825805664,0.356075257062912
1686353864661248300,1.852248291015625,9.766063690185547,3.8810298442840576,0.6996335983276367
1686353864681248300,1.872248291015625,8.511569023132324,3.6608684062957764,0.4574744999408722
1686353864701246700,1.892246826171875,8.448668479919434,3.5891382694244385,0.24271458387374878
1686353864721246700,1.912246826171875,9.50568962097168,3.687664270401001,0.5589024424552917
1686353864741246700,1.932246826171875,7.981071472167969,3.5180399417877197,0.22512198984622955
1686353864761246700,1.952246826171875,9.47195053100586,3.7065210342407227,0.3149620294570923
1686353864781246700,1.972246826171875,9.455659866333008,3.6605331897735596,0.5581362843513489
1686353864801246700,1.992246826171875,8.013297080993652,3.7448952198028564,0.3706032633781433
1686353864821246700,2.012246826171875,9.650988578796387,3.959329605102539,0.6201844215393066
1686353864841246700,2.032246826171875,9.110109329223633,3.8186845779418945,0.6589992046356201
1686353864861246700,2.052246826171875,7.731298923492432,3.6885263919830322,0.19705238938331604
1686353864881248300,2.072248291015625,9.493776321411133,3.895864248275757,0.5604060292243958
1686353864901248300,2.092248291015625,8.35630989074707,3.7005834579467773,0.37646427750587463
1686353864921248300,2.112248291015625,8.578606605529785,3.7769296169281006,0.3838479816913605
1686353864941248300,2.132248291015625,9.351205825805664,3.738909959793091,0.5690538287162781
1686353864961246700,2.152246826171875,9.132682800292969,3.757843255996704,0.4826710522174835
1686353864981246700,2.172246826171875,8.991596221923828,3.83556866645813,0.6057617664337158
1686353865001246700,2.192246826171875,8.751965522766113,3.7607545852661133,0.4176541268825531
1686353865021246700,2.212246826171875,8.657365798950195,3.7232232093811035,0.39297470450401306
1686353865041246700,2.232246826171875,8.781989097595215,3.715101957321167,0.34314656257629395
1686353865061246700,2.252246826171875,8.662518501281738,3.7014262676239014,0.29150843620300293
1686353865081246700,2.272246826171875,9.530138969421387,3.84075927734375,0.5627043843269348
1686353865101246700,2.292246826171875,8.319812774658203,3.6516077518463135,0.36910927295684814
1686353865121246700,2.312246826171875,9.020115852355957,3.8786354064941406,0.4933108687400818
1686353865141246700,2.332246826171875,9.478165626525879,3.9134950637817383,0.7533212304115295
1686353865161248300,2.352248291015625,7.678798675537109,3.6482174396514893,0.3298443853855133
1686353865181248300,2.372248291015625,9.397970199584961,3.7666635513305664,0.4346816837787628
1686353865201248300,2.392248291015625,8.95926570892334,3.5397698879241943,0.3947559893131256
1686353865221246700,2.412246826171875,8.73218059539795,3.7548744678497314,0.40894877910614014
1686353865241246700,2.432246826171875,8.969694137573242,3.6760475635528564,0.4903516471385956
1686353865261246700,2.452246826171875,8.733962059020996,3.838470458984375,0.4168400764465332
1686353865281246700,2.472246826171875,8.901029586791992,3.8485641479492188,0.5302103161811829
1686353865301246700,2.492246826171875,8.519172668457031,3.7036383152008057,0.34129825234413147
1686353865321246700,2.512246826171875,8.703459739685059,3.7404232025146484,0.4205559194087982
1686353865341246700,2.532246826171875,9.129522323608398,3.6786909103393555,0.37646427750587463
1686353865361246700,2.552246826171875,8.961286544799805,3.7008230686187744,0.3650391399860382
1686353865381246700,2.572246826171875,8.769654273986816,3.7796497344970703,0.4472847580909729
1686353865401246700,2.592246826171875,9.045734405517578,3.8396100997924805,0.6130880117416382
1686353865421248300,2.612248291015625,8.371565818786621,3.749032497406006,0.5107502937316895
1686353865441246700,2.632246826171875,8.305859565734863,3.7361037731170654,0.28446948528289795
1686353865461246700,2.652246826171875,9.719319343566895,3.8162522315979004,0.5433688163757324
1686353865481246700,2.672246826171875,8.3479585647583,3.485804557800293,0.32824504375457764
1686353865501246700,2.692246826171875,8.510573387145996,3.771442413330078,0.2418239414691925
1686353865521248300,2.712248291015625,9.995993614196777,3.874690055847168,0.6395200490951538
1686353865541246700,2.732246826171875,8.423050880432129,3.6352121829986572,0.288194864988327
1686353865561246700,2.752246826171875,8.396254539489746,3.8813552856445312,0.4477061331272125
1686353865581246700,2.772246826171875,9.389273643493652,3.8417935371398926,0.6208069324493408
1686353865601246700,2.792246826171875,7.7441887855529785,3.5896363258361816,0.19344192743301392
1686353865621246700,2.812246826171875,9.866984367370605,3.8324944972991943,0.4267808198928833
1686353865641246700,2.832246826171875,8.405113220214844,3.5107808113098145,0.3246825039386749
1686353865661246700,2.852246826171875,9.382637023925781,3.782005548477173,0.365824431180954
1686353865681246700,2.872246826171875,8.693355560302734,3.4899511337280273,0.38057273626327515
1686353865701246700,2.892246826171875,8.312093734741211,3.679006814956665,0.30933088064193726
1686353865721246700,2.912246826171875,9.750137329101562,3.906245470046997,0.6497862935066223
1686353865741246700,2.932246826171875,8.085515975952148,3.654557466506958,0.2852930724620819
1686353865761246700,2.952246826171875,9.041147232055664,3.770379066467285,0.4161505699157715
1686353865781246700,2.972246826171875,9.445737838745117,3.773970365524292,0.5926893949508667
1686353865801246700,2.992246826171875,8.300640106201172,3.6703879833221436,0.1912296712398529
1686353865821246700,3.012246826171875,9.066640853881836,3.657095193862915,0.27084168791770935
1686353865841246700,3.032246826171875,9.251147270202637,3.7989373207092285,0.5102427005767822
1686353865861246700,3.052246826171875,7.9211106300354,3.66562819480896,0.30520325899124146
1686353865881246700,3.072246826171875,9.02487564086914,3.8237411975860596,0.40662163496017456
1686353865901248300,3.092248291015625,8.88473892211914,3.641350746154785,0.44716984033584595
1686353865921248300,3.112248291015625,8.520456314086914,3.546339273452759,0.22482511401176453
1686353865941248300,3.132248291015625,9.64272403717041,3.598236083984375,0.3696455955505371
1686353865961248300,3.152248291015625,9.108979225158691,3.612697124481201,0.37500861287117004
1686353865981248300,3.172248291015625,8.779642105102539,3.7127845287323,0.24392126500606537
1686353866001248300,3.192248291015625,9.571548461914062,3.880129337310791,0.4899398386478424
1686353866021248300,3.212248291015625,8.262228012084961,3.727618932723999,0.37029680609703064
1686353866041248300,3.232248291015625,8.483710289001465,3.8073744773864746,0.3630184233188629
1686353866061248300,3.252248291015625,8.837324142456055,3.6987926959991455,0.48326483368873596
1686353866081248300,3.272248291015625,8.327991485595703,3.6087992191314697,0.1616373509168625
1686353866101248300,3.292248291015625,9.055636405944824,3.4346354007720947,0.09630436450242996
1686353866121248300,3.312248291015625,9.79743766784668,3.608004331588745,0.3193577826023102
1686353866141248300,3.332248291015625,8.754810333251953,3.564640522003174,0.36818990111351013
1686353866161248300,3.352248291015625,8.888425827026367,3.6538965702056885,0.2891908288002014
1686353866181248300,3.372248291015625,9.268433570861816,3.7845911979675293,0.6583001017570496
1686353866201248300,3.392248291015625,8.042258262634277,3.714240074157715,0.3351116478443146
1686353866221248300,3.412248291015625,8.72676944732666,3.7117884159088135,0.32787156105041504
1686353866241248300,3.432248291015625,9.835418701171875,3.7748804092407227,0.5087965726852417
1686353866261248300,3.452248291015625,8.177213668823242,3.507620334625244,0.2507878541946411
1686353866281248300,3.472248291015625,9.314957618713379,3.7475385665893555,0.3027132749557495
1686353866301248300,3.492248291015625,8.536622047424316,3.577531099319458,0.3560369610786438
1686353866321248300,3.512248291015625,8.766034126281738,3.7103328704833984,0.220256969332695
1686353866341248300,3.532248291015625,9.246512413024902,3.539616346359253,0.4152790904045105
1686353866361248300,3.552248291015625,9.122109413146973,3.5411295890808105,0.2969384789466858
1686353866381248300,3.572248291015625,8.755097389221191,3.5415797233581543,0.2306765466928482
1686353866401248300,3.592248291015625,9.728580474853516,3.69571852684021,0.339785099029541
1686353866421248300,3.612248291015625,7.867873668670654,3.5843210220336914,0.3008841276168823
1686353866441248300,3.632248291015625,9.15829086303711,4.007414817810059,0.6622074842453003
1686353866461246700,3.652246826171875,8.431612014770508,3.831996440887451,0.5454661846160889
1686353866481248300,3.672248291015625,8.415206909179688,3.6962740421295166,0.2860209047794342
1686353866501248300,3.692248291015625,9.207975387573242,3.7071149349212646,0.48711472749710083
1686353866521248300,3.712248291015625,9.532858848571777,3.6671605110168457,0.4658159017562866
1686353866541248300,3.732248291015625,8.131752967834473,3.484636068344116,0.09598833322525024
1686353866561248300,3.752248291015625,9.828073501586914,3.6498265266418457,0.3157377243041992
1686353866581248300,3.772248291015625,8.951881408691406,3.533851385116577,0.46379515528678894
1686353866601246700,3.792246826171875,7.406587600708008,3.527588129043579,0.03263775631785393
1686353866621246700,3.812246826171875,9.564165115356445,3.7650258541107178,0.4153173863887787
1686353866641246700,3.832246826171875,9.519221305847168,3.7720935344696045,0.5461365580558777
1686353866661248300,3.852248291015625,7.594762325286865,3.6634349822998047,0.275103360414505
1686353866681248300,3.872248291015625,9.669855117797852,3.9172587394714355,0.6429102420806885
1686353866701246700,3.892246826171875,8.720754623413086,3.8576624393463135,0.649690568447113
1686353866721248300,3.912248291015625,7.531181812286377,3.79465651512146,0.328532338142395
1686353866741246700,3.932246826171875,9.332387924194336,3.693917989730835,0.4503110349178314
1686353866761246700,3.952246826171875,9.665602684020996,3.5665082931518555,0.5322214365005493
1686353866781246700,3.972246826171875,8.023371696472168,3.546358585357666,0.11265197396278381
1686353866801246700,3.992246826171875,10.11833667755127,3.813082218170166,0.48253700137138367
1686353866821246700,4.012246826171875,8.82201099395752,3.6687023639678955,0.4028770923614502
1686353866841246700,4.032246826171875,8.374189376831055,3.7754645347595215,0.3319704234600067
1686353866861248300,4.052248291015625,8.522783279418945,3.7954320907592773,0.4261966347694397
1686353866881248300,4.072248291015625,8.468378067016602,3.8951938152313232,0.4285908341407776
1686353866901248300,4.092248291015625,8.912731170654297,3.751445770263672,0.4401596188545227
1686353866921248300,4.112248291015625,9.168872833251953,3.6629369258880615,0.38840654492378235
1686353866941248300,4.132248291015625,9.275970458984375,3.6957664489746094,0.4934832751750946
1686353866961248300,4.152248291015625,8.854926109313965,3.6584551334381104,0.49967947602272034
1686353866981248300,4.172248291015625,8.609166145324707,3.717620611190796,0.32677024602890015
1686353867001248300,4.192248291015625,8.955674171447754,3.8303778171539307,0.5303635597229004
1686353867021248300,4.212248291015625,8.7479248046875,3.733537435531616,0.485812246799469
1686353867041248300,4.232248291015625,8.936387062072754,3.7319953441619873,0.426052987575531
1686353867061248300,4.252248291015625,9.303695678710938,3.8302438259124756,0.5852674245834351
1686353867081248300,4.272248291015625,8.477523803710938,3.812747001647949,0.33712273836135864
1686353867101248300,4.292248291015625,8.617277145385742,3.8154478073120117,0.3463452160358429
1686353867121248300,4.312248291015625,9.75300121307373,3.9487664699554443,0.6630789637565613
1686353867141248300,4.332248291015625,7.797417163848877,3.602545738220215,0.20607373118400574
1686353867161248300,4.352248291015625,9.263894081115723,3.7927792072296143,0.2945442795753479
1686353867181248300,4.372248291015625,9.533011436462402,3.652891159057617,0.48069822788238525
1686353867201248300,4.392248291015625,8.007474899291992,3.573413133621216,0.16487431526184082
1686353867221248300,4.412248291015625,9.681289672851562,3.840165615081787,0.5252496004104614
1686353867241248300,4.432248291015625,8.720190048217773,3.7538018226623535,0.5727983713150024
1686353867261248300,4.452248291015625,8.56520938873291,3.889849901199341,0.5066896677017212
1686353867281248300,4.472248291015625,9.053913116455078,3.881575584411621,0.543617844581604
1686353867301248300,4.492248291015625,8.730158805847168,3.8074703216552734,0.5857845544815063
1686353867321248300,4.512248291015625,8.554147720336914,3.832111358642578,0.48544833064079285
1686353867341248300,4.532248291015625,8.935333251953125,3.7793240547180176,0.4388093054294586
1686353867361248300,4.552248291015625,9.356837272644043,3.782599449157715,0.41137173771858215
1686353867381248300,4.572248291015625,8.985198974609375,3.70112943649292,0.3991517424583435
1686353867401256200,4.592256103515625,9.034845352172852,3.7667593955993652,0.17981411516666412
1686353867421248300,4.612248291015625,9.511100769042969,3.7364583015441895,0.45884397625923157
1686353867441248300,4.632248291015625,8.295621871948242,3.781411647796631,0.3838096857070923
1686353867461248300,4.652248291015625,8.321756362915039,3.847395896911621,0.3919212222099304
1686353867481248300,4.672248291015625,9.424995422363281,3.909472942352295,0.5849801301956177
1686353867501248300,4.692248291015625,8.647109031677246,3.6726958751678467,0.4490373134613037
1686353867521248300,4.712248291015625,8.963680267333984,3.712458848953247,0.33787932991981506
1686353867541248300,4.732248291015625,9.822662353515625,3.818751811981201,0.6158269643783569
1686353867561248300,4.752248291015625,9.094470977783203,3.7828290462493896,0.5070344805717468
1686353867581248300,4.772248291015625,8.360973358154297,3.8238465785980225,0.28840553760528564
1686353867601248300,4.792248291015625,8.483642578125,3.817793846130371,0.2541588842868805
1686353867621248300,4.812248291015625,8.228468894958496,3.763857364654541,0.3350158631801605
1686353867641248300,4.832248291015625,8.650489807128906,3.7946181297302246,0.3357628583908081
1686353867661248300,4.852248291015625,9.674221992492676,3.7496743202209473,0.45640188455581665
1686353867681248300,4.872248291015625,9.520380020141602,3.6459381580352783,0.45711055397987366
1686353867701248300,4.892248291015625,8.658888816833496,3.7359793186187744,0.3853515684604645
1686353867721248300,4.912248291015625,9.567057609558105,3.819594383239746,0.5099649429321289
1686353867741248300,4.932248291015625,8.494972229003906,3.816826581954956,0.4488458037376404
1686353867761248300,4.952248291015625,8.317169189453125,3.8776490688323975,0.4724143147468567
1686353867781248300,4.972248291015625,8.723418235778809,3.8801772594451904,0.4567466378211975
1686353867801248300,4.992248291015625,9.425512313842773,3.9481725692749023,0.7390517592430115
1686353867821248300,5.012248291015625,8.382789611816406,3.7770638465881348,0.3529053330421448
1686353867841248300,5.032248291015625,9.150859832763672,3.772888422012329,0.3816740810871124
1686353867861248300,5.052248291015625,8.959620475769043,3.7610418796539307,0.46948379278182983
1686353867881248300,5.072248291015625,8.552309036254883,3.8231186866760254,0.31601548194885254
1686353867901248300,5.092248291015625,9.118595123291016,3.8228695392608643,0.43871352076530457
1686353867921248300,5.112248291015625,8.792112350463867,3.8965728282928467,0.3429933488368988
1686353867941248300,5.132248291015625,9.241991996765137,3.792635679244995,0.5191395282745361
1686353867961248300,5.152248291015625,8.203512191772461,3.681755304336548,0.1902720034122467
1686353867981248300,5.172248291015625,9.2467041015625,3.8670666217803955,0.5300092101097107
1686353868001248300,5.192248291015625,9.352019309997559,3.8703322410583496,0.5107694268226624
1686353868021248300,5.212248291015625,8.052658081054688,3.670905113220215,0.4523125886917114
1686353868041248300,5.232248291015625,8.71161937713623,3.910076141357422,0.3915190100669861
1686353868061248300,5.252248291015625,10.280022621154785,3.9619345664978027,0.8480358123779297
1686353868081248300,5.272248291015625,8.213529586791992,3.8619909286499023,0.3936450779438019
1686353868101248300,5.292248291015625,8.450315475463867,3.8097400665283203,0.3066493570804596
1686353868121248300,5.312248291015625,10.145611763000488,3.9039852619171143,0.6190352439880371
1686353868141248300,5.332248291015625,7.698929309844971,3.628096580505371,0.1801876276731491
1686353868161248300,5.352248291015625,8.830199241638184,3.8603246212005615,0.17470011115074158
1686353868181248300,5.372248291015625,10.261175155639648,3.8004982471466064,0.5281800627708435
1686353868201248300,5.392248291015625,7.855605602264404,3.644808053970337,0.12882721424102783
1686353868221248300,5.412248291015625,8.495652198791504,3.8184547424316406,0.2935386896133423
1686353868241248300,5.432248291015625,9.448152542114258,3.907586097717285,0.5093232989311218
1686353868261248300,5.452248291015625,8.05611515045166,3.7979986667633057,0.36682042479515076
1686353868281248300,5.472248291015625,9.060914039611816,3.966809034347534,0.4378707706928253
1686353868301248300,5.492248291015625,9.682543754577637,3.8503358364105225,0.5914444327354431
1686353868321248300,5.512248291015625,7.747215270996094,3.772869110107422,0.2500791549682617
1686353868341248300,5.532248291015625,9.405803680419922,4.072422027587891,0.4781029224395752
1686353868361248300,5.552248291015625,9.035507202148438,3.7710111141204834,0.40658333897590637
1686353868381248300,5.572248291015625,8.571146011352539,3.7198326587677,0.19370050728321075
1686353868401254700,5.592254638671875,8.544273376464844,3.7445409297943115,0.384709894657135
1686353868421248300,5.612248291015625,8.828858375549316,3.790480852127075,0.35962823033332825
1686353868441248300,5.632248291015625,9.234129905700684,3.716068983078003,0.36513492465019226
1686353868461248300,5.652248291015625,9.42941951751709,3.7209722995758057,0.3614382743835449
1686353868481248300,5.672248291015625,8.846192359924316,3.7046151161193848,0.31112173199653625
1686353868501248300,5.692248291015625,9.308991432189941,3.797567844390869,0.44558966159820557
1686353868521248300,5.712248291015625,8.548823356628418,3.7091259956359863,0.20679199695587158
1686353868541248300,5.732248291015625,9.089539527893066,3.92042875289917,0.5011255741119385
1686353868561248300,5.752248291015625,8.512258529663086,3.7676594257354736,0.33168312907218933
1686353868581248300,5.772248291015625,8.719040870666504,3.765284538269043,0.367615282535553
1686353868601248300,5.792248291015625,8.775409698486328,3.753993511199951,0.35833537578582764
1686353868621248300,5.812248291015625,9.449051856994629,3.7103612422943115,0.4143980145454407
1686353868641248300,5.832248291015625,9.281017303466797,3.7083311080932617,0.35623806715011597
1686353868661248300,5.852248291015625,9.087077140808105,3.790806531906128,0.5069769620895386
1686353868681248300,5.872248291015625,8.836653709411621,3.873961925506592,0.4547642469406128
1686353868701248300,5.892248291015625,8.019148826599121,3.7652366161346436,0.23037008941173553
1686353868721248300,5.912248291015625,8.613485336303711,3.785137176513672,0.24964819848537445
1686353868741248300,5.932248291015625,8.694993019104004,3.8010153770446777,0.3163411021232605
1686353868761248300,5.952248291015625,9.030928611755371,3.7564640045166016,0.2619926929473877
1686353868781248300,5.972248291015625,9.272561073303223,3.669497013092041,0.36152443289756775
1686353868801248300,5.992248291015625,9.04299545288086,3.84775972366333,0.43703755736351013
1686353868821248300,6.012248291015625,9.00985050201416,3.917565107345581,0.4686601758003235
1686353868841248300,6.032248291015625,8.2726469039917,3.9155540466308594,0.4304870367050171
1686353868861248300,6.052248291015625,9.051116943359375,4.048068523406982,0.5932448506355286
1686353868881248300,6.072248291015625,7.846412181854248,3.680941343307495,0.1952710896730423
1686353868901248300,6.092248291015625,8.771052360534668,3.7147092819213867,0.23038923740386963
1686353868921248300,6.112248291015625,9.550183296203613,3.63144850730896,0.4021109640598297
1686353868941248300,6.132248291015625,8.614950180053711,3.5122363567352295,0.1645965725183487
1686353868961248300,6.152248291015625,9.99976634979248,3.6328084468841553,0.5820878744125366
1686353868981248300,6.172248291015625,9.0767822265625,3.9911341667175293,0.7260560393333435
1686353869001248300,6.192248291015625,8.06122875213623,3.9721052646636963,0.3258604407310486
1686353869021248300,6.212248291015625,8.828876495361328,4.370433330535889,0.7156556248664856
1686353869041248300,6.232248291015625,7.699216365814209,4.2605299949646,0.33658644556999207
1686353869061248300,6.252248291015625,8.094766616821289,4.0721635818481445,0.29534873366355896
1686353869081248300,6.272248291015625,8.783262252807617,3.7416296005249023,0.3396606147289276
1686353869101248300,6.292248291015625,9.333383560180664,3.5349526405334473,0.3965468406677246
1686353869121248300,6.312248291015625,9.710680961608887,3.533822536468506,0.49380889534950256
1686353869141248300,6.332248291015625,9.31373119354248,3.6857874393463135,0.5651943683624268
1686353869161248300,6.352248291015625,8.49636173248291,3.7588584423065186,0.33568620681762695
1686353869181248300,6.372248291015625,8.641813278198242,3.9007482528686523,0.19488801062107086
1686353869201248300,6.392248291015625,8.148723602294922,3.9679582118988037,0.26831337809562683
1686353869221248300,6.412248291015625,8.856851577758789,4.150588035583496,0.4921520948410034
1686353869241248300,6.432248291015625,8.5106782913208,3.9371402263641357,0.530947744846344
1686353869261248300,6.452248291015625,8.607834815979004,3.8396291732788086,0.45523351430892944
1686353869281248300,6.472248291015625,9.262667655944824,3.831843376159668,0.5925553441047668
1686353869301248300,6.492248291015625,9.137202262878418,3.7345142364501953,0.550235390663147
1686353869321248300,6.512248291015625,8.854907035827637,3.6956512928009033,0.38868430256843567
1686353869341248300,6.532248291015625,9.559213638305664,3.72475528717041,0.4993825852870941
1686353869361248300,6.552248291015625,8.507652282714844,3.5947980880737305,0.18097291886806488
1686353869381248300,6.572248291015625,9.09990119934082,3.7914671897888184,0.2806195914745331
1686353869401248300,6.592248291015625,8.301597595214844,3.5803754329681396,0.10565132647752762
1686353869421248300,6.612248291015625,8.640578269958496,3.847386360168457,0.21314141154289246
1686353869441248300,6.632248291015625,9.155034065246582,3.909626007080078,0.6622170209884644
1686353869461248300,6.652248291015625,7.894698143005371,3.871471881866455,0.39161476492881775
1686353869481248300,6.672248291015625,9.854629516601562,3.9721052646636963,0.6464152932167053
1686353869501248300,6.692248291015625,8.491448402404785,3.7522025108337402,0.4174913167953491
1686353869521248300,6.712248291015625,8.503792762756348,3.892521858215332,0.2999359965324402
1686353869541248300,6.732248291015625,9.593680381774902,3.8503358364105225,0.47244301438331604
1686353869561248300,6.752248291015625,8.649991989135742,3.7369658946990967,0.3011522591114044
1686353869581248300,6.772248291015625,8.193656921386719,3.8530750274658203,0.3493618965148926
1686353869601248300,6.792248291015625,9.70627498626709,3.982170343399048,0.649173378944397
1686353869621248300,6.812248291015625,7.9079909324646,3.710170030593872,0.36159148812294006
1686353869641248300,6.832248291015625,8.719538688659668,3.9835782051086426,0.4737933576107025
1686353869661248300,6.852248291015625,8.761629104614258,3.859673261642456,0.5019299983978271
1686353869681248300,6.872248291015625,9.337137222290039,3.8724007606506348,0.45298296213150024
1686353869701248300,6.892248291015625,8.464048385620117,3.825589656829834,0.40399760007858276
1686353869721248300,6.912248291015625,9.14852237701416,3.940664529800415,0.4869614839553833
1686353869741248300,6.932248291015625,8.933667182922363,3.9030754566192627,0.5288791656494141
1686353869761248300,6.952248291015625,8.508543014526367,3.9859626293182373,0.48899176716804504
1686353869781248300,6.972248291015625,8.931722640991211,3.8657257556915283,0.4435115158557892
1686353869801248300,6.992248291015625,8.629172325134277,3.8442068099975586,0.45335644483566284
1686353869821248300,7.012248291015625,8.5980863571167,3.8358943462371826,0.40974369645118713
1686353869841248300,7.032248291015625,8.948999404907227,3.692222833633423,0.48736369609832764
1686353869861248300,7.052248291015625,9.434782981872559,3.932935953140259,0.676649272441864
1686353869881248300,7.072248291015625,8.268107414245605,3.8705623149871826,0.46098917722702026
1686353869901248300,7.092248291015625,9.375320434570312,3.973388433456421,0.5741487145423889
1686353869921248300,7.112248291015625,8.412507057189941,3.9410476684570312,0.5944994688034058
1686353869941248300,7.132248291015625,8.226725578308105,3.9241251945495605,0.3280535340309143
1686353869961248300,7.152248291015625,9.001115798950195,3.8675551414489746,0.4139479100704193
1686353869981248300,7.172248291015625,9.029291152954102,3.825618267059326,0.4633546471595764
1686353870001248300,7.192248291015625,8.689017295837402,3.7879526615142822,0.417883962392807
1686353870021248300,7.212248291015625,9.396638870239258,3.8841135501861572,0.5318671464920044
1686353870041248300,7.232248291015625,8.65907096862793,3.880828619003296,0.4719546139240265
1686353870061248300,7.252248291015625,8.777009963989258,3.812248945236206,0.3918542265892029
1686353870081248300,7.272248291015625,8.84118366241455,3.8281657695770264,0.558117151260376
1686353870101248300,7.292248291015625,8.700662612915039,3.7903947830200195,0.5482051372528076
1686353870121248300,7.312248291015625,9.2268705368042,3.7702834606170654,0.5521891117095947
1686353870141248300,7.332248291015625,9.025949478149414,3.8326382637023926,0.612886905670166
1686353870161248300,7.352248291015625,8.891863822937012,3.8961994647979736,0.4491617977619171
1686353870181248300,7.372248291015625,8.9269437789917,3.803725481033325,0.3101353049278259
1686353870201248300,7.392248291015625,8.953940391540527,3.821260690689087,0.4439328908920288
1686353870221248300,7.412248291015625,8.085075378417969,3.7784907817840576,0.24577917158603668
1686353870241248300,7.432248291015625,9.516109466552734,3.88492751121521,0.5589599013328552
1686353870261248300,7.452248291015625,8.801219940185547,3.7724478244781494,0.48480671644210815
1686353870281248300,7.472248291015625,8.877097129821777,3.8348119258880615,0.5691304802894592
1686353870301248300,7.492248291015625,8.689535140991211,3.839792013168335,0.6412534117698669
1686353870321248300,7.512248291015625,9.340709686279297,4.094046592712402,0.7165175080299377
1686353870341248300,7.532248291015625,7.930984973907471,4.136261463165283,0.5827391147613525
1686353870361248300,7.552248291015625,7.359939098358154,4.24468994140625,0.11708603799343109
1686353870381248300,7.572248291015625,8.820219993591309,4.2437896728515625,0.4258805811405182
1686353870401248300,7.592248291015625,8.363204956054688,3.8833377361297607,0.2811654806137085
1686353870421248300,7.612248291015625,9.69582748413086,3.572225570678711,0.4869040250778198
1686353870441248300,7.632248291015625,10.416223526000977,3.4214675426483154,0.7978533506393433
1686353870461249800,7.652249755859375,8.661724090576172,3.400570869445801,0.6306423544883728
1686353870481248300,7.672248291015625,9.265130043029785,3.5576400756835938,0.3827945590019226
1686353870501248300,7.692248291015625,9.146406173706055,3.7552478313446045,0.4903133511543274
1686353870521248300,7.712248291015625,7.741852760314941,3.9154582023620605,0.1305893361568451
1686353870541248300,7.732248291015625,8.99034309387207,4.007328510284424,0.38980478048324585
1686353870561248300,7.752248291015625,8.682591438293457,4.0891242027282715,0.6127527952194214
1686353870581248300,7.772248291015625,8.962971687316895,4.052186489105225,0.7016064524650574
1686353870601248300,7.792248291015625,9.374659538269043,3.941986083984375,0.8061564564704895
1686353870621248300,7.812248291015625,8.604013442993164,3.9113402366638184,0.7352497577667236
1686353870641248300,7.832248291015625,8.807099342346191,3.9033243656158447,0.6010308265686035
1686353870661248300,7.852248291015625,8.794160842895508,3.6954121589660645,0.4988366961479187
1686353870681248300,7.872248291015625,8.74503231048584,3.6155221462249756,0.25987622141838074
1686353870701248300,7.892248291015625,9.107084274291992,3.5965888500213623,0.29001444578170776
1686353870721248300,7.912248291015625,10.079216003417969,3.726890802383423,0.5113152861595154
1686353870741248300,7.932248291015625,8.007245063781738,3.6584455966949463,0.30348899960517883
1686353870761248300,7.952248291015625,9.626261711120605,3.985579490661621,0.5885331034660339
1686353870781248300,7.972248291015625,8.254949569702148,3.8466200828552246,0.5392700433731079
1686353870801248300,7.992248291015625,8.254201889038086,3.8820927143096924,0.3219435214996338
1686353870821248300,8.012248291015625,9.784383773803711,4.036787033081055,0.7929308414459229
1686353870841248300,8.032248291015625,8.451044082641602,3.927687883377075,0.5862442255020142
1686353870861248300,8.052248291015625,9.193236351013184,3.800689935684204,0.5496129393577576
1686353870881248300,8.072248291015624,9.414949417114258,3.888059139251709,0.6836308240890503
1686353870901248300,8.092248291015625,8.719413757324219,3.8794589042663574,0.5595824122428894
1686353870921248300,8.112248291015625,7.927096843719482,3.6639904975891113,0.23692062497138977
1686353870941248300,8.132248291015625,9.143389701843262,3.7081491947174072,0.3660542964935303
1686353870961248300,8.152248291015624,9.166412353515625,3.603637456893921,0.38711369037628174
1686353870981248300,8.172248291015626,8.875707626342773,3.6292076110839844,0.31941521167755127
1686353871001248300,8.192248291015625,9.358733177185059,3.7300033569335938,0.49448883533477783
1686353871021248300,8.212248291015625,8.974483489990234,3.894073247909546,0.5905729532241821
1686353871041248300,8.232248291015624,8.363808631896973,3.946420192718506,0.4340496361255646
1686353871061248300,8.252248291015626,9.242767333984375,3.9323902130126953,0.5563167333602905
1686353871081248300,8.272248291015625,8.987785339355469,3.8795740604400635,0.6643335223197937
1686353871101248300,8.292248291015625,8.273030281066895,3.698112726211548,0.41422560811042786
1686353871121248300,8.312248291015624,9.554128646850586,3.744608163833618,0.5457918047904968
1686353871141248300,8.332248291015626,8.10295581817627,3.6186347007751465,0.286854088306427
1686353871161248300,8.352248291015625,9.758306503295898,3.7760391235351562,0.3636888265609741
1686353871181248300,8.372248291015625,8.74240779876709,3.5964548587799072,0.36044228076934814
1686353871201248300,8.392248291015624,8.826990127563477,3.896362066268921,0.3942771255970001
1686353871221248300,8.412248291015626,10.141454696655273,3.856858015060425,0.791714608669281
1686353871241248300,8.432248291015625,7.304824352264404,3.6625828742980957,0.16973932087421417
1686353871261248300,8.452248291015625,9.729853630065918,3.9346790313720703,0.6155396699905396
1686353871281248300,8.472248291015624,8.803096771240234,3.735816717147827,0.5707585215568542
1686353871301248300,8.492248291015626,7.44726037979126,3.619448661804199,0.11776599287986755
1686353871321248300,8.512248291015625,10.9285249710083,4.05570125579834,0.8242279291152954
1686353871341248300,8.532248291015625,8.475319862365723,3.879545211791992,0.6698497533798218
1686353871361248300,8.552248291015625,8.423317909240723,3.9410476684570312,0.4071100354194641
1686353871381248300,8.572248291015624,9.989892959594727,3.8724870681762695,0.7358052134513855
1686353871401248300,8.592248291015625,7.5466766357421875,3.784428358078003,0.35125812888145447
1686353871421248300,8.612248291015625,9.599944114685059,3.7816989421844482,0.41862136125564575
1686353871441248300,8.632248291015625,9.198408126831055,3.6149380207061768,0.38117605447769165
1686353871461248300,8.652248291015624,8.584228515625,3.742539644241333,0.3013725280761719
1686353871481248300,8.672248291015626,9.8041410446167,3.749156951904297,0.47674301266670227
1686353871501248300,8.692248291015625,8.492319107055664,3.859050989151001,0.4076942503452301
1686353871521248300,8.712248291015625,8.497663497924805,3.9077775478363037,0.4909837245941162
1686353871541248300,8.732248291015624,9.350650787353516,3.8982200622558594,0.6941365599632263
1686353871561248300,8.752248291015626,8.556877136230469,3.769996166229248,0.4904187023639679
1686353871581248300,8.772248291015625,9.249539375305176,3.8114254474639893,0.5173391103744507
1686353871601248300,8.792248291015625,9.03034496307373,3.8935465812683105,0.7269753813743591
1686353871621248300,8.812248291015624,8.695931434631348,3.9528558254241943,0.5862059593200684
1686353871641248300,8.832248291015626,8.76933765411377,3.919844388961792,0.5162186026573181
1686353871661248300,8.852248291015625,8.711830139160156,3.84124755859375,0.44215157628059387
1686353871681248300,8.872248291015625,9.23558521270752,3.8383936882019043,0.5018630027770996
1686353871701248300,8.892248291015624,8.692273139953613,3.7682149410247803,0.3600400388240814
1686353871721248300,8.912248291015626,9.226640701293945,3.7327425479888916,0.2403203845024109
1686353871741248300,8.932248291015625,8.987747192382812,3.8215386867523193,0.45527181029319763
1686353871761248300,8.952248291015625,9.088140487670898,3.9908852577209473,0.5473432540893555
1686353871781248300,8.972248291015624,8.016677856445312,3.8366410732269287,0.4064875841140747
1686353871801248300,8.992248291015626,9.279150009155273,3.9325814247131348,0.5265807509422302
1686353871821248300,9.012248291015625,8.46545696258545,3.8872451782226562,0.7079846262931824
1686353871841248300,9.032248291015625,8.911946296691895,4.008162021636963,0.4993155598640442
1686353871861248300,9.052248291015625,9.23558521270752,3.7883071899414062,0.5939344167709351
1686353871881248300,9.072248291015624,9.15114688873291,3.9135525226593018,0.5227883458137512
1686353871901248300,9.092248291015625,8.660698890686035,3.777801275253296,0.501489520072937
1686353871921248300,9.112248291015625,9.032825469970703,3.9505858421325684,0.4231129288673401
1686353871941248300,9.132248291015625,9.229982376098633,3.8743643760681152,0.565491259098053
1686353871961248300,9.152248291015624,8.530177116394043,3.864097833633423,0.37332308292388916
1686353871981248300,9.172248291015626,8.582331657409668,3.7693545818328857,0.37107253074645996
1686353872001248300,9.192248291015625,8.697311401367188,3.866377115249634,0.4159207046031952
1686353872021248300,9.212248291015625,9.493757247924805,3.9273812770843506,0.4769345819950104
1686353872041248300,9.232248291015624,9.198034286499023,3.88923716545105,0.49111780524253845
1686353872061248300,9.252248291015626,8.043301582336426,3.7484865188598633,0.2988538146018982
1686353872081248300,9.272248291015625,9.68285083770752,4.059934139251709,0.7340143322944641
1686353872101248300,9.292248291015625,8.654972076416016,3.863877773284912,0.5497374534606934
1686353872121248300,9.312248291015624,8.592377662658691,3.8700547218322754,0.4083358645439148
1686353872141248300,9.332248291015626,9.39747142791748,3.896965503692627,0.6770036220550537
1686353872161248300,9.352248291015625,8.623100280761719,3.852050304412842,0.46473369002342224
1686353872181248300,9.372248291015625,9.126984596252441,3.8598170280456543,0.5308807492256165
1686353872201248300,9.392248291015624,8.4760103225708,3.8885092735290527,0.4534139037132263
1686353872221248300,9.412248291015626,9.013144493103027,3.8640213012695312,0.3856196999549866
1686353872241248300,9.432248291015625,9.269850730895996,3.8618760108947754,0.5257954001426697
1686353872261248300,9.452248291015625,8.301827430725098,3.7536866664886475,0.29003360867500305
1686353872281248300,9.472248291015624,9.501849174499512,3.8581793308258057,0.5307753682136536
1686353872301248300,9.492248291015626,8.920785903930664,3.845107078552246,0.6519028544425964
1686353872321248300,9.512248291015625,8.002120971679688,3.773118257522583,0.3365960419178009
1686353872341248300,9.532248291015625,9.60112190246582,3.9743077754974365,0.708903968334198
1686353872361248300,9.552248291015625,8.936309814453125,3.8613109588623047,0.5840224027633667
1686353872381248300,9.572248291015624,9.006632804870605,3.947521448135376,0.49653828144073486
1686353872401248300,9.592248291015625,8.908297538757324,3.9727468490600586,0.6481199860572815
1686353872421248300,9.612248291015625,9.148330688476562,3.9708411693573,0.5083752274513245
1686353872441248300,9.632248291015625,8.07121753692627,3.757920026779175,0.3145885169506073
1686353872461248300,9.652248291015624,9.22270393371582,3.9638211727142334,0.38082170486450195
1686353872481248300,9.672248291015626,9.18460750579834,3.6361987590789795,0.43458589911460876
1686353872501248300,9.692248291015625,7.882382392883301,3.704011917114258,0.17861701548099518
1686353872521248300,9.712248291015625,9.926380157470703,3.8401846885681152,0.458853542804718
1686353872541248300,9.732248291015624,8.466854095458984,3.77129864692688,0.4093605875968933
1686353872561248300,9.752248291015626,8.128726959228516,3.8487749099731445,0.3719344437122345
1686353872581248300,9.772248291015625,10.113069534301758,4.023705005645752,0.7456214427947998
1686353872601248300,9.792248291015625,7.8222784996032715,3.751235008239746,0.4877467751502991
1686353872621248300,9.812248291015624,9.060502052307129,4.006619930267334,0.6215347647666931
1686353872641248300,9.832248291015626,9.08442497253418,3.9457786083221436,0.7750701308250427
1686353872661248300,9.852248291015625,7.678061008453369,3.8091652393341064,0.24071304500102997
1686353872681248300,9.872248291015625,9.941271781921387,3.957749605178833,0.622626543045044
1686353872701248300,9.892248291015624,8.428221702575684,3.8094048500061035,0.3671460449695587
1686353872721248300,9.912248291015626,8.85416030883789,3.7015891075134277,0.17644308507442474
1686353872741248300,9.932248291015625,9.821551322937012,3.8666930198669434,0.5929096937179565
1686353872761248300,9.952248291015625,8.127864837646484,3.830894947052002,0.41475236415863037
1686353872781248300,9.972248291015624,9.23731803894043,3.8856170177459717,0.3988739848136902
1686353872801248300,9.992248291015626,9.775266647338867,3.9534687995910645,0.8767566680908203
1686353872821248300,10.012248291015625,6.332836151123047,3.7027957439422607,0.16694289445877075
1686353872841248300,10.032248291015625,10.021533966064453,4.093519687652588,0.6611444354057312
1686353872861248300,10.052248291015625,8.450296401977539,3.918771982192993,0.7008594274520874
1686353872881248300,10.072248291015624,8.398831367492676,3.8806562423706055,0.42547836899757385
1686353872901248300,10.092248291015625,10.124772071838379,3.882418155670166,0.7704349160194397
1686353872921248300,10.112248291015625,8.160090446472168,3.785395860671997,0.5078101754188538
1686353872941248300,10.132248291015625,8.328451156616211,3.885329484939575,0.3341347873210907
1686353872961248300,10.152248291015624,10.973421096801758,3.967039108276367,0.7749552130699158
1686353872981248300,10.172248291015626,8.323892593383789,3.8153138160705566,0.5546311736106873
1686353873001248300,10.192248291015625,8.506704330444336,3.8342373371124268,0.5881500244140625
1686353873021248300,10.212248291015625,8.655011177062988,3.925370454788208,0.6332184672355652
1686353873041248300,10.232248291015624,8.840503692626953,3.981471300125122,0.5334855914115906
1686353873061248300,10.252248291015626,8.735818862915039,3.770341157913208,0.5118132829666138
1686353873081248300,10.272248291015625,9.493009567260742,3.9633326530456543,0.604459285736084
1686353873101248300,10.292248291015625,8.657577514648438,3.777466058731079,0.425133615732193
1686353873121248300,10.312248291015624,9.86463737487793,4.093414783477783,0.5843192934989929
1686353873141248300,10.332248291015626,8.443534851074219,3.867957353591919,0.5139393210411072
1686353873161248300,10.352248291015625,9.387128829956055,3.9100377559661865,0.41589200496673584
1686353873181248300,10.372248291015625,8.592473983764648,3.6525750160217285,0.48815858364105225
1686353873201248300,10.392248291015624,8.507172584533691,3.784801959991455,0.339239239692688
1686353873221248300,10.412248291015626,9.54155445098877,3.766960382461548,0.5370864868164062
1686353873241248300,10.432248291015625,8.976005554199219,3.8507862091064453,0.4759768545627594
1686353873261248300,10.452248291015625,9.076648712158203,3.988337993621826,0.6485796570777893
1686353873281248300,10.472248291015624,8.682687759399414,4.043442726135254,0.7035505175590515
1686353873301248300,10.492248291015626,9.270866394042969,4.136165618896484,0.7241502404212952
1686353873321248300,10.512248291015625,8.953117370605469,3.8767776489257812,0.6019501686096191
1686353873341248300,10.532248291015625,8.840579986572266,3.868924617767334,0.5270116329193115
1686353873361248300,10.552248291015625,9.063193321228027,3.695344924926758,0.3992762267589569
1686353873381248300,10.572248291015624,9.258607864379883,3.6306536197662354,0.4184011220932007
1686353873401248300,10.592248291015625,9.230480194091797,3.704634428024292,0.3249315023422241
1686353873421248300,10.612248291015625,8.948118209838867,3.6755688190460205,0.32541990280151367
1686353873441248300,10.632248291015625,8.663189888000488,3.7742483615875244,0.40126821398735046
1686353873461248300,10.652248291015624,9.490164756774902,4.0145111083984375,0.7954591512680054
1686353873481248300,10.672248291015626,8.336064338684082,3.9873034954071045,0.6530807614326477
1686353873501248300,10.692248291015625,9.217503547668457,3.89795184135437,0.6120728850364685
1686353873521248300,10.712248291015625,9.115558624267578,3.9196434020996094,0.7167282104492188
1686353873541248300,10.732248291015624,8.21424674987793,3.704145908355713,0.2905603349208832
1686353873561248300,10.752248291015626,9.48404598236084,3.723309278488159,0.31534507870674133
1686353873581248300,10.772248291015625,8.265732765197754,3.625932455062866,0.12510183453559875
1686353873601248300,10.792248291015625,9.892582893371582,3.6696791648864746,0.29577967524528503
1686353873621248300,10.812248291015624,9.285805702209473,3.5839474201202393,0.4161888659000397
1686353873641248300,10.832248291015626,8.461175918579102,3.6478633880615234,0.32304486632347107
1686353873661248300,10.852248291015625,9.160608291625977,3.774209976196289,0.5783146619796753
1686353873681248300,10.872248291015625,9.03976821899414,3.9696342945098877,0.7695155739784241
1686353873701248300,10.892248291015624,7.562938690185547,3.7919747829437256,0.5071589946746826
1686353873721248300,10.912248291015626,9.529976844787598,3.942685127258301,0.801463782787323
1686353873741248300,10.932248291015625,9.714818000793457,3.8427417278289795,0.8096040487289429
1686353873761248300,10.952248291015625,8.586268424987793,3.810324192047119,0.4763599634170532
1686353873781248300,10.972248291015624,9.465447425842285,3.7729363441467285,0.40339425206184387
1686353873801248300,10.992248291015626,9.26060962677002,3.7302141189575195,0.3839341700077057
1686353873821248300,11.012248291015625,8.295238494873047,3.681410551071167,0.3221541941165924
1686353873841248300,11.032248291015625,8.88503646850586,3.672992706298828,0.25329697132110596
1686353873861248300,11.052248291015625,10.070893287658691,3.619046688079834,0.5213326215744019
1686353873881248300,11.072248291015624,8.076025009155273,3.5586936473846436,0.37023934721946716
1686353873901248300,11.092248291015625,9.21519660949707,3.828606128692627,0.5260826945304871
1686353873921248300,11.112248291015625,9.829471588134766,3.9646542072296143,0.8400104641914368
1686353873941248300,11.132248291015625,8.227884292602539,3.9185802936553955,0.5854397416114807
1686353873961248300,11.152248291015624,9.457939147949219,3.997732639312744,0.7824347019195557
1686353873981248300,11.172248291015626,8.656829833984375,3.912843704223633,0.7667478919029236
1686353874001248300,11.192248291015625,8.359604835510254,3.7769010066986084,0.5008191466331482
1686353874021248300,11.212248291015625,9.32994556427002,3.60267972946167,0.5072451233863831
1686353874041248300,11.232248291015624,9.336544036865234,3.679495334625244,0.43314939737319946
1686353874061246700,11.252246826171875,8.758889198303223,3.6593551635742188,0.3748362064361572
1686353874081248300,11.272248291015625,9.107572555541992,3.7285189628601074,0.3108631670475006
1686353874101248300,11.292248291015625,9.289397239685059,3.790337324142456,0.5517581105232239
1686353874121248300,11.312248291015624,8.444674491882324,3.877830982208252,0.41254010796546936
1686353874141248300,11.332248291015626,9.627008438110352,3.850297689437866,0.5511356592178345
1686353874161246700,11.352246826171875,8.291091918945312,3.6944735050201416,0.4801236391067505
1686353874181248300,11.372248291015625,8.830926895141602,3.837024211883545,0.5250675678253174
1686353874201248300,11.392248291015624,9.701065063476562,3.7810094356536865,0.7470388412475586
1686353874221248300,11.412248291015626,8.024358749389648,3.760026693344116,0.39017826318740845
1686353874241248300,11.432248291015625,9.460822105407715,3.8380587100982666,0.6635099053382874
1686353874261248300,11.452248291015625,8.756553649902344,3.888174057006836,0.6164590716362
1686353874281246700,11.472246826171874,8.782258033752441,3.843651294708252,0.4842991232872009
1686353874301248300,11.492248291015626,9.289704322814941,3.81475830078125,0.5226925611495972
1686353874321248300,11.512248291015625,9.578157424926758,3.7925686836242676,0.6290237903594971
1686353874341248300,11.532248291015625,7.95937967300415,3.534809112548828,0.22858880460262299
1686353874361248300,11.552248291015625,9.02308464050293,3.673720359802246,0.3029622733592987
1686353874381248300,11.572248291015624,9.097076416015625,3.690173625946045,0.5257284045219421
1686353874401248300,11.592248291015625,8.489235877990723,3.704643964767456,0.36565205454826355
1686353874421248300,11.612248291015625,9.14247989654541,3.825474500656128,0.5150598287582397
1686353874441248300,11.632248291015625,9.443747520446777,4.025706768035889,0.703703761100769
1686353874461248300,11.652248291015624,8.27573013305664,3.9181206226348877,0.6612880825996399
1686353874481248300,11.672248291015626,7.934231281280518,3.8996565341949463,0.5469218492507935
1686353874501248300,11.692248291015625,9.589017868041992,3.991833209991455,0.7642961740493774
1686353874521248300,11.712248291015625,9.112178802490234,3.673433303833008,0.5700402855873108
1686353874541248300,11.732248291015624,8.747235298156738,3.5645642280578613,0.22726719081401825
1686353874561248300,11.752248291015626,9.49178409576416,3.739743232727051,0.47807419300079346
1686353874581248300,11.772248291015625,8.337845802307129,3.632185935974121,0.3243664503097534
1686353874601246700,11.792246826171874,8.977538108825684,3.8250341415405273,0.4558751583099365
1686353874621248300,11.812248291015624,9.014150619506836,3.860746145248413,0.502150297164917
1686353874641248300,11.832248291015626,8.946701049804688,3.758772134780884,0.5880542397499084
1686353874661246700,11.852246826171875,8.842207908630371,3.9943997859954834,0.6612114906311035
1686353874681248300,11.872248291015625,8.33658218383789,3.9659759998321533,0.6207206845283508
1686353874701248300,11.892248291015624,9.217628479003906,3.922382354736328,0.6618340015411377
1686353874721248300,11.912248291015626,8.69471549987793,3.826442003250122,0.6555994749069214
1686353874741246700,11.932246826171875,7.820401191711426,3.6813533306121826,0.2799971103668213
1686353874761246700,11.952246826171875,10.29297924041748,3.794206380844116,0.576389729976654
1686353874781248300,11.972248291015624,8.48977279663086,3.7418980598449707,0.5173487067222595
1686353874801248300,11.992248291015626,8.67788028717041,3.88470721244812,0.5614402890205383
1686353874821246700,12.012246826171875,9.219918251037598,3.8404335975646973,0.664103627204895
1686353874841248300,12.032248291015625,8.28735637664795,3.849550724029541,0.5904388427734375
1686353874861248300,12.052248291015625,8.454222679138184,3.857604742050171,0.4633929431438446
1686353874881248300,12.072248291015624,10.19127368927002,3.953325033187866,0.7169963717460632
1686353874901248300,12.092248291015625,8.192766189575195,3.7137229442596436,0.4316937327384949
1686353874921248300,12.112248291015625,9.062350273132324,3.899848222732544,0.5844821333885193
1686353874941248300,12.132248291015625,8.755470275878906,3.8410847187042236,0.5674928426742554
1686353874961248300,12.152248291015624,8.608745574951172,3.7835283279418945,0.44447875022888184
1686353874981248300,12.172248291015626,8.90218734741211,3.748065233230591,0.5169464945793152
1686353875001248300,12.192248291015625,8.505899429321289,3.821749210357666,0.5862920880317688
1686353875021248300,12.212248291015625,9.044049263000488,3.8602192401885986,0.44814667105674744
1686353875041248300,12.232248291015624,9.723599433898926,3.8757336139678955,0.7013574242591858
1686353875061248300,12.252248291015626,8.265847206115723,3.8488516807556152,0.47532564401626587
1686353875081248300,12.272248291015625,8.727008819580078,3.864097833633423,0.48011404275894165
1686353875101248300,12.292248291015625,9.910663604736328,3.9516873359680176,0.876785397529602
1686353875121248300,12.312248291015624,8.142765998840332,3.889486074447632,0.6196768879890442
1686353875141248300,12.332248291015626,9.260503768920898,3.883596181869507,0.5842905640602112
1686353875161248300,12.352248291015625,9.19491195678711,3.9016199111938477,0.7374045252799988
1686353875181248300,12.372248291015625,9.129923820495605,4.088980674743652,0.6134423613548279
1686353875201248300,12.392248291015624,8.984443664550781,3.919605016708374,0.6085007190704346
1686353875221248300,12.412248291015626,9.327445983886719,3.9656598567962646,0.5088444948196411
1686353875241248300,12.432248291015625,8.626605033874512,3.8239808082580566,0.5525721907615662
1686353875261248300,12.452248291015625,8.805557250976562,3.8509585857391357,0.359867662191391
1686353875281248300,12.472248291015624,9.657472610473633,3.834649085998535,0.5685654282569885
1686353875301248300,12.492248291015626,8.624872207641602,3.734485387802124,0.46707043051719666
1686353875321248300,12.512248291015625,9.04069709777832,3.878281354904175,0.5618999600410461
1686353875341248300,12.532248291015625,8.92949104309082,3.914433479309082,0.667771577835083
1686353875361248300,12.552248291015625,8.958470344543457,4.107147693634033,0.8499607443809509
1686353875381248300,12.572248291015624,8.510716438293457,4.0120978355407715,0.7576690912246704
1686353875401248300,12.592248291015625,9.19786262512207,3.96376371383667,0.7661541104316711
1686353875421248300,12.612248291015625,9.508753776550293,4.033252716064453,0.9303867816925049
1686353875441248300,12.632248291015625,8.110272407531738,3.835453510284424,0.481857031583786
1686353875461248300,12.652248291015624,9.751343727111816,3.972909688949585,0.617637038230896
1686353875481246700,12.672246826171875,9.800061225891113,3.951629877090454,0.8527763485908508
1686353875501248300,12.692248291015625,7.831146717071533,3.823779582977295,0.4016321003437042
1686353875521248300,12.712248291015625,9.55453109741211,3.9316141605377197,0.5225297212600708
1686353875541248300,12.732248291015624,9.254136085510254,3.9247288703918457,0.6409852504730225
1686353875561248300,12.752248291015626,8.534523963928223,3.7734344005584717,0.34357750415802
1686353875581248300,12.772248291015625,10.332474708557129,3.9621741771698,0.6485030651092529
1686353875601248300,12.792248291015625,9.127482414245605,3.8475587368011475,0.4577426314353943
1686353875621248300,12.812248291015624,9.035161972045898,3.9408464431762695,0.4886086583137512
1686353875641248300,12.832248291015626,9.255122184753418,4.22235631942749,0.7943291068077087
1686353875661248300,12.852248291015625,8.94847297668457,4.132880210876465,0.7612124681472778
1686353875681248300,12.872248291015625,8.719701766967773,4.056543827056885,0.806453287601471
1686353875701248300,12.892248291015624,8.218432426452637,3.9506051540374756,0.6610295176506042
1686353875721248300,12.912248291015626,9.926580429077148,3.999638319015503,0.707275927066803
1686353875741248300,12.932248291015625,9.702329635620117,3.9371306896209717,0.7116717100143433
1686353875761248300,12.952248291015625,8.839037895202637,3.88145112991333,0.4369705617427826
1686353875781248300,12.972248291015624,9.693960189819336,3.9958746433258057,0.7767652273178101
1686353875801248300,12.992248291015626,8.80984878540039,4.012001991271973,0.6881605982780457
1686353875821248300,13.012248291015625,8.963144302368164,3.9330127239227295,0.5867900848388672
1686353875841248300,13.032248291015625,9.392578125,4.056486129760742,0.659439742565155
1686353875861248300,13.052248291015625,9.374009132385254,3.9767401218414307,0.5995942950248718
1686353875881248300,13.072248291015624,9.301224708557129,3.9127957820892334,0.6152427792549133
1686353875901248300,13.092248291015625,9.006067276000977,4.179672718048096,0.7036175727844238
1686353875921248300,13.112248291015625,9.067704200744629,4.05087423324585,0.6693996787071228
1686353875941248300,13.132248291015625,8.92966365814209,3.9912874698638916,0.6300294399261475
1686353875961248300,13.152248291015624,9.211565971374512,4.107693195343018,0.8268135786056519
1686353875981248300,13.172248291015626,9.712750434875488,3.970611095428467,0.6603878736495972
1686353876001248300,13.192248291015625,9.337597846984863,3.935588836669922,0.5906399488449097
1686353876021248300,13.212248291015625,9.522802352905273,4.0418243408203125,0.7230680584907532
1686353876041248300,13.232248291015624,9.429495811462402,4.039018154144287,0.6584533452987671
1686353876061248300,13.252248291015626,9.459403991699219,4.1397857666015625,0.8120366334915161
1686353876081248300,13.272248291015625,8.844353675842285,4.123476028442383,0.7566635012626648
1686353876101248300,13.292248291015625,10.304874420166016,4.245302677154541,0.981038510799408
1686353876121248300,13.312248291015624,8.54792308807373,4.036221981048584,0.6381217837333679
1686353876141248300,13.332248291015626,9.818726539611816,4.205214500427246,0.6615466475486755
1686353876161248300,13.352248291015625,9.724366188049316,4.0544657707214355,0.7750031352043152
1686353876181248300,13.372248291015625,8.568291664123535,3.9842007160186768,0.3764547109603882
1686353876201248300,13.392248291015624,10.230069160461426,4.011302947998047,0.6082708835601807
1686353876221248300,13.412248291015626,9.582437515258789,3.9329264163970947,0.574244499206543
1686353876241248300,13.432248291015625,8.942937850952148,3.901792287826538,0.35615184903144836
1686353876261248300,13.452248291015625,10.377523422241211,4.1486053466796875,0.8309795260429382
1686353876281248300,13.472248291015624,8.730283737182617,3.9586400985717773,0.6282672882080078
1686353876301248300,13.492248291015626,9.871341705322266,4.2427263259887695,0.8652166128158569
1686353876321248300,13.512248291015625,9.295382499694824,4.230592727661133,0.9583318829536438
1686353876341248300,13.532248291015625,9.183382034301758,4.113123416900635,0.7477858066558838
1686353876361248300,13.552248291015625,9.779203414916992,4.118448257446289,0.821383535861969
1686353876381248300,13.572248291015624,9.963757514953613,4.18333101272583,0.7907760739326477
1686353876401248300,13.592248291015625,9.195784568786621,3.9659950733184814,0.5945568680763245
1686353876421248300,13.612248291015625,9.979874610900879,4.005030155181885,0.7210761308670044
1686353876441248300,13.632248291015625,9.773256301879883,4.008343696594238,0.6637206077575684
1686353876461248300,13.652248291015624,9.304155349731445,3.97541880607605,0.5505706071853638
1686353876481248300,13.672248291015626,9.617718696594238,3.959664821624756,0.48959508538246155
1686353876501248300,13.692248291015625,10.169621467590332,3.970534324645996,0.6114982962608337
1686353876521246700,13.712246826171874,9.413416862487793,4.0833587646484375,0.5880351066589355
1686353876541248300,13.732248291015624,9.688098907470703,4.110538005828857,0.6245898008346558
1686353876561248300,13.752248291015626,10.139338493347168,4.076540470123291,0.7555238604545593
1686353876581248300,13.772248291015625,9.242538452148438,4.078158855438232,0.6993942260742188
1686353876601248300,13.792248291015625,9.344234466552734,4.174865245819092,0.7525646090507507
1686353876621248300,13.812248291015624,9.813383102416992,4.159896373748779,0.7209228277206421
1686353876641248300,13.832248291015626,9.645155906677246,4.073849201202393,0.7330471277236938
1686353876661248300,13.852248291015625,9.452595710754395,4.104083061218262,0.6223966479301453
1686353876681248300,13.872248291015625,10.420063018798828,4.046871185302734,0.5542672872543335
1686353876701248300,13.892248291015624,10.130661964416504,4.002262592315674,0.6531573534011841
1686353876721248300,13.912248291015626,9.104631423950195,4.013965129852295,0.48761269450187683
1686353876741248300,13.932248291015625,9.855012893676758,4.056093692779541,0.5155386328697205
1686353876761248300,13.952248291015625,10.225492477416992,4.177451133728027,0.7934958934783936
1686353876781248300,13.972248291015624,9.414824485778809,4.078484535217285,0.632595956325531
1686353876801248300,13.992248291015626,9.583855628967285,4.07567834854126,0.5356403589248657
1686353876821248300,14.012248291015625,10.140679359436035,4.112673282623291,0.7284215092658997
1686353876841248300,14.032248291015625,9.623062133789062,4.133072376251221,0.6609624624252319
1686353876861248300,14.052248291015625,9.326334953308105,3.9923505783081055,0.5413768887519836
1686353876881248300,14.072248291015624,10.745052337646484,4.142467021942139,0.7058968544006348
1686353876901248300,14.092248291015625,10.23569107055664,4.048355579376221,0.7930170893669128
1686353876921248300,14.112248291015625,9.085745811462402,3.9557576179504395,0.451010137796402
1686353876941248300,14.132248291015625,10.06203556060791,4.10043478012085,0.7298771739006042
1686353876961248300,14.152248291015624,9.86410140991211,4.102588653564453,0.6721577644348145
1686353876981248300,14.172248291015626,9.365551948547363,4.0318450927734375,0.5787551999092102
1686353877001248300,14.192248291015625,10.55152416229248,4.195072174072266,0.7758171558380127
1686353877021248300,14.212248291015625,10.511042594909668,4.171187877655029,0.8879998326301575
1686353877041248300,14.232248291015624,8.550661087036133,4.074174880981445,0.5840607285499573
1686353877061248300,14.252248291015626,10.33470630645752,4.227930068969727,0.7328650951385498
1686353877081248300,14.272248291015625,10.258914947509766,4.116332054138184,0.7629363536834717
1686353877101248300,14.292248291015625,9.45906925201416,3.9944093227386475,0.5287642478942871
1686353877121248300,14.312248291015624,10.299932479858398,4.094276428222656,0.7277702689170837
1686353877141248300,14.332248291015626,9.901823997497559,4.136232376098633,0.6668905019760132
1686353877161248300,14.352248291015625,10.536623001098633,4.110068321228027,0.8169207572937012
1686353877181248300,14.372248291015625,9.164458274841309,4.192792892456055,0.7132135629653931
1686353877201248300,14.392248291015624,10.11674690246582,4.2877373695373535,0.7252707481384277
1686353877221248300,14.412248291015626,10.573877334594727,4.194459438323975,0.8691526651382446
1686353877241248300,14.432248291015625,8.990456581115723,4.106611251831055,0.642009973526001
1686353877261248300,14.452248291015625,10.593107223510742,4.333332538604736,0.8794094324111938
1686353877281248300,14.472248291015624,10.014841079711914,4.067662715911865,0.6584054827690125
1686353877301248300,14.492248291015626,9.880084991455078,4.064023017883301,0.5418078899383545
1686353877321248300,14.512248291015625,10.357794761657715,4.20448637008667,0.7197545170783997
1686353877341248300,14.532248291015625,10.229216575622559,4.197494983673096,0.7039144039154053
1686353877361248300,14.552248291015625,9.684277534484863,4.1186113357543945,0.6652145981788635
1686353877381248300,14.572248291015624,9.738702774047852,4.275843143463135,0.8207706212997437
1686353877401248300,14.592248291015625,10.249817848205566,4.297065258026123,0.9027481079101562
1686353877421248300,14.612248291015625,9.878504753112793,4.202264785766602,0.8088475465774536
1686353877441248300,14.632248291015625,10.233028411865234,4.2181715965271,0.782204806804657
1686353877461248300,14.652248291015624,9.968996047973633,4.125649929046631,0.7640089392662048
1686353877481248300,14.672248291015626,9.910463333129883,4.1679606437683105,0.7673320770263672
1686353877501248300,14.692248291015625,9.872376441955566,4.028770923614502,0.6486179828643799
1686353877521248300,14.712248291015625,10.394034385681152,4.170392990112305,0.6877487897872925
1686353877541248300,14.732248291015624,10.185786247253418,4.1341352462768555,0.7309976816177368
1686353877561248300,14.752248291015626,9.59502124786377,4.180563449859619,0.6774441599845886
1686353877581248300,14.772248291015625,10.140717506408691,4.311851978302002,1.0077385902404785
1686353877601248300,14.792248291015625,10.146818161010742,4.278486251831055,0.9856449365615845
1686353877621248300,14.812248291015624,9.278929710388184,4.154064655303955,0.7705786228179932
1686353877641248300,14.832248291015626,10.222484588623047,4.124251842498779,0.9245449304580688
1686353877661248300,14.852248291015625,10.600902557373047,4.264121055603027,1.048114538192749
1686353877681248300,14.872248291015625,9.999526977539062,4.281857490539551,1.0404146909713745
1686353877701248300,14.892248291015624,9.806937217712402,4.284357070922852,1.0802159309387207
1686353877721248300,14.912248291015626,9.813056945800781,4.275259017944336,1.065390944480896
1686353877741248300,14.932248291015625,10.130815505981445,4.26875638961792,1.0183593034744263
1686353877761248300,14.952248291015625,10.271039009094238,4.287574768066406,0.9606398940086365
1686353877781248300,14.972248291015624,10.111125946044922,4.099380970001221,0.7942907810211182
1686353877801248300,14.992248291015626,10.142250061035156,4.094496726989746,0.7633481621742249
1686353877821248300,15.012248291015625,10.17643928527832,4.1678547859191895,0.8481220006942749
1686353877841248300,15.032248291015625,9.90513801574707,4.182182312011719,0.7773876786231995
1686353877861248300,15.052248291015625,10.487771034240723,4.350724220275879,1.0111289024353027
1686353877881248300,15.072248291015624,9.514328002929688,4.274224758148193,0.9813162088394165
1686353877901248300,15.092248291015625,10.13277816772461,4.334386348724365,1.1126717329025269
1686353877921248300,15.112248291015625,9.175145149230957,4.237698554992676,0.9634650945663452
1686353877941248300,15.132248291015625,10.885563850402832,4.328065395355225,1.108122706413269
1686353877961249800,15.152249755859375,9.721138954162598,4.074385643005371,0.8356721997261047
1686353877981248300,15.172248291015626,10.292855262756348,4.18903923034668,0.7354030013084412
1686353878001248300,15.192248291015625,10.650941848754883,4.242984771728516,0.9660220742225647
1686353878021248300,15.212248291015625,9.498018264770508,4.184240818023682,0.8262964487075806
1686353878041248300,15.232248291015624,9.696440696716309,4.283427715301514,0.841063916683197
1686353878061248300,15.252248291015626,10.772624015808105,4.29331111907959,1.1334341764450073
1686353878081307600,15.2723076171875,9.491850852966309,4.228639125823975,0.9256941676139832
1686353878101248300,15.292248291015625,10.458658218383789,4.296107292175293,1.0116651058197021
1686353878121248300,15.312248291015624,10.044815063476562,4.298731803894043,0.900938093662262
1686353878141248300,15.332248291015626,10.248083114624023,4.310894012451172,1.1462862491607666
1686353878161248300,15.352248291015625,9.61845588684082,4.317530632019043,0.9430952072143555
1686353878181248300,15.372248291015625,10.276239395141602,4.281416893005371,1.0194414854049683
1686353878201249800,15.392249755859375,9.855339050292969,4.196997165679932,0.8412171006202698
1686353878221248300,15.412248291015626,10.888542175292969,4.370682239532471,0.9762693047523499
1686353878241248300,15.432248291015625,9.75943660736084,4.042896747589111,0.6950654983520508
1686353878261248300,15.452248291015625,10.242414474487305,4.250454902648926,0.7673033475875854
1686353878281248300,15.472248291015624,10.897802352905273,4.401481628417969,1.1302450895309448
1686353878301248300,15.492248291015626,9.440547943115234,4.313039779663086,0.739750862121582
1686353878321248300,15.512248291015625,9.674777030944824,4.314906597137451,0.8173134326934814
1686353878341248300,15.532248291015625,10.513265609741211,4.401940822601318,1.1037079095840454
1686353878361248300,15.552248291015625,10.253456115722656,4.3243303298950195,1.0329735279083252
1686353878381248300,15.572248291015624,9.783062934875488,4.17633056640625,0.7729057669639587
1686353878401248300,15.592248291015625,10.496123313903809,4.3292717933654785,0.985252320766449
1686353878421248300,15.612248291015625,10.612998008728027,4.2863874435424805,1.099570631980896
1686353878441248300,15.632248291015625,9.287300109863281,4.18161678314209,0.7581000328063965
1686353878461248300,15.652248291015624,10.092077255249023,4.225766181945801,0.8584170341491699
1686353878481248300,15.672248291015626,10.925278663635254,4.337355136871338,0.9806936979293823
1686353878501248300,15.692248291015625,9.309977531433105,4.1633830070495605,0.7003040313720703
1686353878521248300,15.712248291015625,10.5065336227417,4.39413595199585,0.8598631620407104
1686353878541248300,15.732248291015624,10.87707805633545,4.382806777954102,1.1169525384902954
1686353878561248300,15.752248291015626,9.026561737060547,4.267004013061523,0.6755000352859497
1686353878581248300,15.772248291015625,10.77547836303711,4.445716381072998,1.026078224182129
1686353878601248300,15.792248291015625,9.75343132019043,4.289643287658691,1.0838934183120728
1686353878621248300,15.812248291015624,8.646688461303711,4.207062721252441,0.7575349807739258
1686353878641248300,15.832248291015626,11.701766967773438,4.48898458480835,1.3491326570510864
1686353878661248300,15.852248291015625,9.587677001953125,4.253385543823242,0.9863344430923462
1686353878681248300,15.872248291015625,10.325751304626465,4.19635534286499,0.8803958892822266
1686353878701248300,15.892248291015624,10.517306327819824,4.439041614532471,1.0149403810501099
1686353878721248300,15.912248291015626,9.992996215820312,4.28129243850708,0.913071870803833
1686353878741248300,15.932248291015625,9.879644393920898,4.247658729553223,0.7126676440238953
1686353878761248300,15.952248291015625,10.940505981445312,4.333907127380371,1.0734260082244873
1686353878781248300,15.972248291015624,10.144807815551758,4.314858913421631,0.742690920829773
1686353878801248300,15.992248291015626,10.510190963745117,4.329578399658203,0.9458437561988831
1686353878821248300,16.012248291015624,9.351359367370605,4.402218818664551,0.7772727608680725
1686353878841248300,16.032248291015627,10.710336685180664,4.487806797027588,1.0910282135009766
1686353878861248300,16.052248291015626,9.418798446655273,4.27482795715332,0.8835849165916443
1686353878881248300,16.072248291015626,9.522573471069336,4.260740756988525,0.8596045970916748
1686353878901248300,16.092248291015625,11.72696304321289,4.442163467407227,1.322844386100769
1686353878921248300,16.112248291015625,9.496811866760254,4.172930717468262,0.9109554290771484
1686353878941248300,16.132248291015625,10.349492073059082,4.350005626678467,0.9003156423568726
1686353878961249800,16.152249755859376,11.740303039550781,4.497153282165527,1.1729577779769897
1686353878981248300,16.172248291015624,9.7947359085083,4.295590400695801,1.005076289176941
1686353879001248300,16.192248291015623,9.647425651550293,4.3818488121032715,0.7928446531295776
1686353879021248300,16.212248291015626,11.268884658813477,4.417072296142578,1.0943896770477295
1686353879041248300,16.232248291015626,9.144059181213379,4.086892604827881,0.7015681266784668
1686353879061248300,16.252248291015626,9.805970191955566,4.1860222816467285,0.6659424304962158
1686353879081248300,16.272248291015625,11.819024085998535,4.436043739318848,1.1367191076278687
1686353879101248300,16.292248291015625,9.115165710449219,4.025026798248291,0.6995953321456909
1686353879121248300,16.312248291015624,10.99558162689209,4.416296482086182,1.0663965940475464
1686353879141248300,16.332248291015624,9.881914138793945,4.235180377960205,1.173417329788208
1686353879161248300,16.352248291015623,9.973459243774414,4.282288074493408,0.9541181325912476
1686353879181248300,16.372248291015627,10.857858657836914,4.302217960357666,1.240933895111084
1686353879201248300,16.392248291015626,9.814225196838379,4.187775135040283,0.8995015621185303
1686353879221248300,16.412248291015626,10.188889503479004,4.247323036193848,0.9213941693305969
1686353879241248300,16.432248291015625,10.860271453857422,4.39224910736084,1.080723524093628
1686353879261248300,16.452248291015625,9.567832946777344,4.2507710456848145,0.7658476829528809
1686353879281248300,16.472248291015624,10.844172477722168,4.414802551269531,1.0521942377090454
1686353879301248300,16.492248291015624,9.964293479919434,4.358069896697998,0.9038973450660706
1686353879321248300,16.512248291015624,10.299070358276367,4.089306354522705,0.7619690299034119
1686353879341248300,16.532248291015627,10.029109001159668,3.984622001647949,0.64113849401474
1686353879361248300,16.552248291015626,10.550950050354004,4.097877502441406,0.8397423028945923
1686353879381248300,16.572248291015626,10.267342567443848,4.104638576507568,0.8799840807914734
1686353879401248300,16.592248291015625,9.917864799499512,4.202494144439697,0.9235202074050903
1686353879421248300,16.612248291015625,11.333709716796875,4.457735538482666,1.3148859739303589
1686353879441248300,16.632248291015625,9.428547859191895,4.39832067489624,1.1161097288131714
1686353879461249800,16.652249755859376,10.87314224243164,4.637721538543701,1.2586413621902466
1686353879481248300,16.672248291015624,9.96882438659668,4.285630702972412,1.0862972736358643
1686353879501248300,16.692248291015623,9.342816352844238,4.086816310882568,0.7106373906135559
1686353879521248300,16.712248291015626,10.708746910095215,4.12432861328125,0.8531402349472046
1686353879541248300,16.732248291015626,10.215263366699219,3.9710707664489746,0.788889467716217
1686353879561248300,16.752248291015626,9.249739646911621,3.9958558082580566,0.6465302109718323
1686353879581248300,16.772248291015625,10.956805229187012,4.209150314331055,1.1448307037353516
1686353879601248300,16.792248291015625,9.411462783813477,4.10053014755249,1.1410765647888184
1686353879621248300,16.812248291015624,10.587130546569824,4.389711380004883,1.3044185638427734
1686353879641248300,16.832248291015624,10.419709205627441,4.262962341308594,1.2666667699813843
1686353879661248300,16.852248291015623,10.218720436096191,4.305913925170898,1.0420619249343872
1686353879681248300,16.872248291015627,11.095965385437012,4.306824207305908,1.2583540678024292
1686353879701248300,16.892248291015626,9.800300598144531,4.22666597366333,0.8899152278900146
1686353879721248300,16.912248291015626,9.718926429748535,4.17606258392334,0.7317829728126526
1686353879741248300,16.932248291015625,10.764656066894531,4.243617057800293,0.9072204828262329
1686353879761248300,16.952248291015625,9.398726463317871,4.0261759757995605,0.6614508628845215
1686353879781248300,16.972248291015624,10.900359153747559,4.248682975769043,0.8397327065467834
1686353879801248300,16.992248291015624,10.498018264770508,4.07976770401001,0.9425014853477478
1686353879821248300,17.012248291015624,9.66517162322998,4.108057498931885,0.8364862203598022
1686353879841248300,17.032248291015627,10.010587692260742,4.165920257568359,1.0657166242599487
1686353879861248300,17.052248291015626,10.327848434448242,4.275153636932373,1.0843626260757446
1686353879881248300,17.072248291015626,10.7449951171875,4.258269309997559,1.1249876022338867
1686353879901248300,17.092248291015625,9.855022430419922,4.240227222442627,1.0118279457092285
1686353879921248300,17.112248291015625,10.163251876831055,4.266831398010254,1.0770652294158936
1686353879941248300,17.132248291015625,10.446554183959961,4.345658302307129,1.120869517326355
1686353879961249800,17.152249755859376,9.9024658203125,4.249430179595947,0.8363233804702759
1686353879981248300,17.172248291015624,10.298994064331055,4.1396894454956055,0.6731920838356018
1686353880001248300,17.192248291015623,10.112150192260742,4.1060075759887695,0.6164208054542542
1686353880021248300,17.212248291015626,11.065885543823242,4.164704322814941,0.8588767647743225
1686353880041248300,17.232248291015626,9.64272403717041,4.0978102684021,0.7970680594444275
1686353880061249800,17.252249755859374,10.090506553649902,4.12530517578125,0.7396934032440186
1686353880081248300,17.272248291015625,10.889537811279297,4.273918151855469,1.1273434162139893
1686353880101248300,17.292248291015625,8.970345497131348,4.163631916046143,0.8112034201622009
1686353880121248300,17.312248291015624,10.228403091430664,4.283954620361328,0.9024895429611206
1686353880141248300,17.332248291015624,11.563420295715332,4.412044525146484,1.1944098472595215
1686353880161248300,17.352248291015623,8.897150039672852,4.148969650268555,0.643752932548523
1686353880181248300,17.372248291015627,10.925891876220703,4.280430316925049,0.8596524596214294
1686353880201248300,17.392248291015626,10.592618942260742,4.260003089904785,1.0248427391052246
1686353880221248300,17.412248291015626,8.681844711303711,4.097954273223877,0.6265721321105957
1686353880241248300,17.432248291015625,10.488566398620605,4.105739593505859,0.7987822890281677
1686353880261248300,17.452248291015625,10.999431610107422,4.2051568031311035,1.007671594619751
1686353880281248300,17.472248291015624,9.67209529876709,4.121244430541992,0.8237394690513611
1686353880301248300,17.492248291015624,10.546602249145508,4.333418846130371,1.0901949405670166
1686353880321248300,17.512248291015624,10.259249687194824,4.263556003570557,1.0985363721847534
1686353880341248300,17.532248291015627,9.786242485046387,4.232220649719238,0.8662891983985901
1686353880361249800,17.552249755859375,10.074743270874023,4.345725059509277,0.9073928594589233
1686353880381248300,17.572248291015626,10.70210075378418,4.2527055740356445,0.7720342874526978
1686353880401248300,17.592248291015625,10.111422538757324,4.13441276550293,0.7293121218681335
1686353880421248300,17.612248291015625,9.576481819152832,4.259504795074463,0.6634907126426697
1686353880441248300,17.632248291015625,10.301608085632324,4.138463973999023,0.6917902231216431
1686353880461249800,17.652249755859376,9.947610855102539,4.120469093322754,0.791829526424408
1686353880481248300,17.672248291015624,9.870260238647461,4.167902946472168,0.862515926361084
1686353880501249800,17.692249755859375,10.065711975097656,4.290553092956543,0.9603430032730103
1686353880521249800,17.712249755859375,10.411089897155762,4.322635173797607,1.098239541053772
1686353880541248300,17.732248291015626,9.558103561401367,4.26488733291626,1.0187711715698242
1686353880561249800,17.752249755859374,10.311262130737305,4.361363887786865,1.0736175775527954
1686353880581248300,17.772248291015625,10.731912612915039,4.30491828918457,0.9815844297409058
1686353880601248300,17.792248291015625,10.575974464416504,4.294919967651367,1.041439414024353
1686353880621248300,17.812248291015624,9.198101997375488,4.148624897003174,0.713663637638092
1686353880641248300,17.832248291015624,10.466090202331543,4.211975574493408,0.7645547986030579
1686353880661248300,17.852248291015623,10.197355270385742,4.157004356384277,0.8162408471107483
1686353880681248300,17.872248291015627,9.19660758972168,4.062558174133301,0.5831509232521057
1686353880701248300,17.892248291015626,10.51822566986084,4.153173923492432,0.7354317307472229
1686353880721248300,17.912248291015626,10.625189781188965,4.185380458831787,0.9460256695747375
1686353880741248300,17.932248291015625,9.108510971069336,4.18710470199585,0.8162599205970764
1686353880761248300,17.952248291015625,10.35627269744873,4.349881172180176,0.9831453561782837
1686353880781248300,17.972248291015624,10.547473907470703,4.295629024505615,1.2414894104003906
1686353880801248300,17.992248291015624,9.024301528930664,4.2403130531311035,0.9373108148574829
1686353880821248300,18.012248291015624,9.93953800201416,4.270566463470459,0.9638385772705078
1686353880841248300,18.032248291015627,10.866448402404785,4.283016204833984,1.1727757453918457
1686353880861248300,18.052248291015626,9.014006614685059,4.07330322265625,0.7957943081855774
1686353880881248300,18.072248291015626,10.450872421264648,4.261631488800049,0.7781826257705688
1686353880901249800,18.092249755859374,10.382264137268066,4.107808589935303,0.8763352632522583
1686353880921248300,18.112248291015625,9.800329208374023,4.2186408042907715,0.7986482381820679
1686353880941248300,18.132248291015625,9.947171211242676,4.202005863189697,0.8780208230018616
1686353880961248300,18.152248291015624,10.092719078063965,4.212003707885742,0.8367255926132202
1686353880981248300,18.172248291015624,10.388652801513672,4.157081127166748,0.9404903054237366
1686353881001248300,18.192248291015623,9.483451843261719,4.12846565246582,0.9214803576469421
1686353881021248300,18.212248291015626,9.290202140808105,4.163411617279053,0.8400679230690002
1686353881041248300,18.232248291015626,10.803500175476074,4.310616493225098,1.1717031002044678
1686353881061248300,18.252248291015626,10.140296936035156,4.369475364685059,1.2182080745697021
1686353881081248300,18.272248291015625,9.216057777404785,4.216342449188232,0.8786528706550598
1686353881101248300,18.292248291015625,10.971094131469727,4.421420097351074,1.2211577892303467
1686353881121248300,18.312248291015624,10.008845329284668,4.252590656280518,1.0496180057525635
1686353881141248300,18.332248291015624,8.905645370483398,4.119654655456543,0.7779719233512878
1686353881161248300,18.352248291015623,11.783514022827148,4.472857475280762,1.2679213285446167
1686353881181248300,18.372248291015627,9.443573951721191,3.911780834197998,0.9161843657493591
1686353881201248300,18.392248291015626,8.549320220947266,3.9536795616149902,0.5071206092834473
1686353881221248300,18.412248291015626,11.364729881286621,4.296998023986816,1.061359167098999
1686353881241248300,18.432248291015625,9.919905662536621,4.175018787384033,0.9846490025520325
1686353881261248300,18.452248291015625,9.337262153625488,4.068859577178955,0.7968382239341736
1686353881281248300,18.472248291015624,10.91696548461914,4.385258197784424,1.2025787830352783
1686353881301248300,18.492248291015624,9.783339500427246,4.268833160400391,1.1371021270751953
1686353881321248300,18.512248291015624,9.212447166442871,4.277576446533203,0.8910069465637207
1686353881341248300,18.532248291015627,10.367142677307129,4.394710540771484,1.2067159414291382
1686353881361248300,18.552248291015626,10.689948081970215,4.266592025756836,1.2418341636657715
1686353881381248300,18.572248291015626,8.506857872009277,4.077574253082275,0.757927656173706
1686353881401248300,18.592248291015625,10.810376167297363,4.420414447784424,0.9333651661872864
1686353881421248300,18.612248291015625,10.280214309692383,4.158039093017578,0.9398869872093201
1686353881441248300,18.632248291015625,8.925065994262695,4.101344108581543,0.5527349710464478
1686353881461249800,18.652249755859376,10.54285717010498,4.318613052368164,0.9296493530273438
1686353881481248300,18.672248291015624,9.92143726348877,4.1099443435668945,0.819755494594574
1686353881501248300,18.692248291015623,10.08764362335205,4.146058082580566,0.8228967189788818
1686353881521248300,18.712248291015626,10.21862506866455,4.288130283355713,0.9875028729438782
1686353881541248300,18.732248291015626,9.202526092529297,4.089507102966309,0.7900099754333496
1686353881561248300,18.752248291015626,10.09785270690918,4.261200428009033,0.9726108908653259
1686353881581248300,18.772248291015625,9.901546478271484,4.347688674926758,1.100652813911438
1686353881601248300,18.792248291015625,9.849113464355469,4.219110488891602,0.9693548083305359
1686353881621248300,18.812248291015624,9.98112964630127,4.26858377456665,1.1364222764968872
1686353881641249800,18.832249755859376,9.637456893920898,4.263115882873535,1.0302536487579346
1686353881661248300,18.852248291015623,10.375914573669434,4.200502395629883,1.0511693954467773
1686353881681249800,18.872249755859375,9.79045581817627,4.13519811630249,0.904826283454895
1686353881701248300,18.892248291015626,10.023622512817383,4.1226043701171875,0.8767184019088745
1686353881721248300,18.912248291015626,10.28923511505127,4.212071418762207,0.9247268438339233
1686353881741248300,18.932248291015625,9.206796646118164,4.057089805603027,0.7607719898223877
1686353881761248300,18.952248291015625,9.664721488952637,4.206277370452881,0.7867251038551331
1686353881781248300,18.972248291015624,10.709312438964844,4.252045154571533,0.9963039755821228
1686353881801248300,18.992248291015624,8.846345901489258,3.971243143081665,0.7307869791984558
1686353881821248300,19.012248291015624,10.20751667022705,4.383008003234863,0.974095344543457
1686353881841248300,19.032248291015627,10.807263374328613,4.338849067687988,1.1948120594024658
1686353881861248300,19.052248291015626,8.42030143737793,4.069577693939209,0.691483736038208
1686353881881249800,19.072249755859374,10.391725540161133,4.4160284996032715,1.1459319591522217
1686353881901248300,19.092248291015625,10.13687801361084,4.289030075073242,1.1866620779037476
1686353881921248300,19.112248291015625,9.302852630615234,4.0553178787231445,0.7561559677124023
1686353881941248300,19.132248291015625,10.488883018493652,4.1849589347839355,0.9668839573860168
1686353881961249800,19.152249755859376,9.575551986694336,4.063650131225586,0.714621365070343
1686353881981248300,19.172248291015624,9.493067741394043,4.123390197753906,0.6671873927116394
1686353882001248300,19.192248291015623,10.473071098327637,4.248213768005371,0.9195554256439209
1686353882021248300,19.212248291015626,9.42707347869873,4.071157932281494,0.7822527289390564
1686353882041248300,19.232248291015626,9.833685874938965,4.128551959991455,0.853101909160614
1686353882061248300,19.252248291015626,9.703948020935059,4.23313045501709,1.0288459062576294
1686353882081248300,19.272248291015625,10.066938400268555,4.178102016448975,0.9061383008956909
1686353882101248300,19.292248291015625,9.77938461303711,4.168946743011475,0.8151586055755615
1686353882121248300,19.312248291015624,10.064725875854492,4.240973949432373,1.0085142850875854
1686353882141248300,19.332248291015624,9.853059768676758,4.241778373718262,1.1114650964736938
1686353882161248300,19.352248291015623,8.996260643005371,4.150827407836914,0.9188659191131592
1686353882181249800,19.372249755859375,9.368127822875977,4.068821430206299,0.7196491956710815
1686353882201248300,19.392248291015626,10.623101234436035,4.1370463371276855,0.9439954161643982
1686353882221248300,19.412248291015626,9.581892013549805,3.887819528579712,0.5956487059593201
1686353882241248300,19.432248291015625,10.189435958862305,3.970965623855591,0.646233320236206
1686353882261248300,19.452248291015625,9.80370044708252,4.049006938934326,0.7427196502685547
1686353882281248300,19.472248291015624,9.155829429626465,3.9973113536834717,0.5984067916870117
1686353882301248300,19.492248291015624,9.648594856262207,4.249660015106201,0.9791135787963867
1686353882321248300,19.512248291015624,9.838339805603027,4.208728790283203,1.107682228088379
1686353882341248300,19.532248291015627,8.109209060668945,3.8533239364624023,0.7816780805587769
1686353882361248300,19.552248291015626,10.159276962280273,4.19344425201416,1.0650845766067505
1686353882381248300,19.572248291015626,10.293774604797363,4.100999355316162,1.0229849815368652
1686353882401249800,19.592249755859374,9.739707946777344,4.172039985656738,0.8632150888442993
1686353882421248300,19.612248291015625,10.738195419311523,4.322769641876221,1.1765202283859253
1686353882441248300,19.632248291015625,9.15408706665039,4.179835319519043,0.9930860996246338
1686353882461249800,19.652249755859376,9.331151962280273,4.092973709106445,0.8633203506469727
1686353882481248300,19.672248291015624,9.455707550048828,4.0416998863220215,0.8176486492156982
1686353882501248300,19.692248291015623,10.060991287231445,3.925485134124756,0.6719183325767517
1686353882521248300,19.712248291015626,10.216269493103027,3.9020891189575195,0.639299750328064
1686353882541248300,19.732248291015626,10.073431968688965,3.9377243518829346,0.5302295088768005
1686353882561248300,19.752248291015626,10.634842872619629,4.186836242675781,0.8632150888442993
1686353882581248300,19.772248291015625,9.222675323486328,4.184030055999756,0.7547385692596436
1686353882601248300,19.792248291015625,8.802301406860352,4.154093265533447,0.8346570730209351
1686353882621248300,19.812248291015624,9.71237564086914,4.147351264953613,1.0386334657669067
1686353882641248300,19.832248291015624,9.514394760131836,3.9987382888793945,0.8781740069389343
1686353882661248300,19.852248291015623,9.827220916748047,3.9151229858398438,0.7560984492301941
1686353882681248300,19.872248291015627,9.84402847290039,3.8659942150115967,0.7622755169868469
1686353882701248300,19.892248291015626,9.866294860839844,3.9450125694274902,0.8439369797706604
1686353882721248300,19.912248291015626,9.167829513549805,4.003766059875488,0.7680407762527466
1686353882741248300,19.932248291015625,10.08242416381836,4.1187639236450195,1.0287022590637207
1686353882761248300,19.952248291015625,9.56761360168457,4.032515525817871,1.0640023946762085
1686353882781249800,19.972249755859377,9.607605934143066,4.003718376159668,0.9077759385108948
1686353882801248300,19.992248291015624,9.426795959472656,3.9274773597717285,0.7217081189155579
1686353882821248300,20.012248291015624,9.863239288330078,3.8568003177642822,0.6305369734764099
1686353882841248300,20.032248291015627,9.774740219116211,3.8699491024017334,0.7034643292427063
1686353882861248300,20.052248291015626,9.50938606262207,3.854626417160034,0.5881596207618713
1686353882881248300,20.072248291015626,9.973909378051758,4.016244411468506,0.8769195079803467
1686353882901248300,20.092248291015625,8.962971687316895,3.9121830463409424,0.7112981677055359
1686353882921248300,20.112248291015625,9.733865737915039,3.9538040161132812,0.7960625290870667
1686353882941248300,20.132248291015625,10.20102310180664,3.9585540294647217,0.9482570886611938
1686353882961249800,20.152249755859376,9.41661548614502,3.821002244949341,0.7261805534362793
1686353882981248300,20.172248291015624,9.87771987915039,3.861119270324707,0.8418875336647034
1686353883001248300,20.192248291015623,9.571080207824707,4.019778728485107,0.9447328448295593
1686353883021248300,20.212248291015626,9.257593154907227,3.9927337169647217,0.7855566740036011
1686353883041249800,20.232249755859375,10.070021629333496,4.059148788452148,0.8595662713050842
1686353883061248300,20.252248291015626,9.370484352111816,3.8126416206359863,0.7580617070198059
1686353883081248300,20.272248291015625,9.498745918273926,3.9710803031921387,0.6542779207229614
1686353883101248300,20.292248291015625,10.039806365966797,3.896381378173828,0.739540159702301
1686353883121248300,20.312248291015624,9.826981544494629,3.7830302715301514,0.6149267554283142
1686353883141248300,20.332248291015624,9.427044868469238,3.8759827613830566,0.8038676381111145
1686353883161248300,20.352248291015623,9.519805908203125,3.994945764541626,0.8072290420532227
1686353883181248300,20.372248291015627,10.0592679977417,3.9642138481140137,0.9481039047241211
1686353883201248300,20.392248291015626,9.727622032165527,4.062845230102539,0.9810193777084351
1686353883221249800,20.412249755859374,9.89107894897461,4.027822971343994,1.0615794658660889
1686353883241248300,20.432248291015625,9.536823272705078,4.138721942901611,1.051973819732666
1686353883261248300,20.452248291015625,9.42408561706543,4.131616115570068,0.9899641275405884
1686353883281248300,20.472248291015624,9.216422080993652,4.078120231628418,0.795411229133606
1686353883301248300,20.492248291015624,10.222704887390137,4.01650333404541,0.8700241446495056
1686353883321248300,20.512248291015624,9.299463272094727,3.806838035583496,0.5145139098167419
1686353883341248300,20.532248291015627,9.878658294677734,3.7608981132507324,0.5620244741439819
1686353883361249800,20.552249755859375,10.006566047668457,3.8792004585266113,0.6098127365112305
1686353883381248300,20.572248291015626,9.573714256286621,3.886727809906006,0.7342729568481445
1686353883401248300,20.592248291015625,9.257363319396973,4.020985126495361,0.8621520400047302
1686353883421248300,20.612248291015625,9.89592456817627,4.146498680114746,1.0281755924224854
1686353883441248300,20.632248291015625,9.110262870788574,4.055049896240234,0.9657347798347473
1686353883461248300,20.652248291015624,9.684890747070312,4.181319713592529,1.11581289768219
1686353883481248300,20.672248291015624,8.999191284179688,4.016349792480469,0.8391389846801758
1686353883501248300,20.692248291015623,10.253159523010254,4.057261943817139,0.9472514986991882
1686353883521248300,20.712248291015626,9.407661437988281,3.9678914546966553,0.8758660554885864
1686353883541248300,20.732248291015626,9.45052719116211,3.955728769302368,0.6862164735794067
1686353883561248300,20.752248291015626,9.838848114013672,3.9437482357025146,0.7708180546760559
1686353883581248300,20.772248291015625,9.945792198181152,4.023082733154297,0.800046443939209
1686353883601248300,20.792248291015625,8.771014213562012,3.77781081199646,0.4485105872154236
1686353883621248300,20.812248291015624,9.79300308227539,3.945701837539673,0.5684888362884521
1686353883641248300,20.832248291015624,10.421577453613281,3.9982211589813232,0.7719002366065979
1686353883661248300,20.852248291015623,9.008509635925293,3.9749302864074707,0.6279128789901733
1686353883681248300,20.872248291015627,9.642168998718262,4.133838176727295,0.8259421586990356
1686353883701248300,20.892248291015626,9.909791946411133,4.165106296539307,0.976499080657959
1686353883721248300,20.912248291015626,9.04495906829834,4.14888334274292,0.9249471426010132
1686353883741248300,20.932248291015625,9.208788871765137,4.127565383911133,0.9196320176124573
1686353883761248300,20.952248291015625,10.063605308532715,4.0356855392456055,1.0506619215011597
1686353883781248300,20.972248291015624,9.349213600158691,4.008286476135254,0.9706668257713318
1686353883801248300,20.992248291015624,9.914006233215332,4.005393981933594,0.9104382991790771
1686353883821248300,21.012248291015624,9.828802108764648,3.9421393871307373,0.8413129448890686
1686353883841248300,21.032248291015627,9.537858009338379,4.012892723083496,0.6695719957351685
1686353883861248300,21.052248291015626,9.166057586669922,3.983750581741333,0.6577351093292236
1686353883881248300,21.072248291015626,9.010568618774414,3.9628825187683105,0.5462418794631958
1686353883901248300,21.092248291015625,10.42969799041748,4.1349968910217285,0.8701199293136597
1686353883921248300,21.112248291015625,8.744123458862305,3.9392855167388916,0.5717641115188599
1686353883941248300,21.132248291015625,10.446189880371094,4.202485084533691,0.9427312612533569
1686353883961248300,21.152248291015624,9.195382118225098,4.032371997833252,0.9777536392211914
1686353883981248300,21.172248291015624,8.800472259521484,4.1072916984558105,0.8557546734809875
1686353884001248300,21.192248291015623,9.558151245117188,4.1013922691345215,1.0300047397613525
1686353884021248300,21.212248291015626,9.45732593536377,4.018696308135986,0.9297259449958801
1686353884041248300,21.232248291015626,9.128287315368652,3.9421584606170654,0.8998846411705017
1686353884061248300,21.252248291015626,10.316423416137695,4.002195358276367,0.984505295753479
1686353884081248300,21.272248291015625,9.858536720275879,3.7956907749176025,0.8609932065010071
1686353884101248300,21.292248291015625,9.599618911743164,3.913686513900757,0.6653103828430176
1686353884121248300,21.312248291015624,9.27004337310791,3.9032094478607178,0.7308156490325928
1686353884141248300,21.332248291015624,8.82680892944336,3.9771809577941895,0.7110204696655273
1686353884161248300,21.352248291015623,9.561291694641113,4.058640956878662,0.8600834608078003
1686353884181248300,21.372248291015627,9.658363342285156,4.023551940917969,0.9055923819541931
1686353884201249800,21.392249755859375,9.198771476745605,3.9729859828948975,0.9382110834121704
1686353884221248300,21.412248291015626,9.833014488220215,4.067269802093506,1.010151982307434
1686353884241249800,21.432249755859374,9.660785675048828,4.147284030914307,1.0881072282791138
1686353884261248300,21.452248291015625,9.274898529052734,4.0967278480529785,0.9620668292045593
1686353884281248300,21.472248291015624,9.513216972351074,3.9929921627044678,0.9734153151512146
1686353884301248300,21.492248291015624,9.583462715148926,3.9966602325439453,0.9014744162559509
1686353884321248300,21.512248291015624,8.838866233825684,3.8515233993530273,0.622626543045044
1686353884341248300,21.532248291015627,10.206433296203613,3.998201847076416,0.7978724837303162
1686353884361248300,21.552248291015626,9.499444961547852,3.8359899520874023,0.8621616363525391
1686353884381248300,21.572248291015626,9.354949951171875,3.953794240951538,0.7508791089057922
1686353884401248300,21.592248291015625,9.315876960754395,3.936565637588501,0.9480751156806946
1686353884421248300,21.612248291015625,10.09225845336914,4.046622276306152,0.991094172000885
1686353884441248300,21.632248291015625,9.177818298339844,3.9837217330932617,1.025187611579895
1686353884461249800,21.652249755859376,8.842897415161133,3.9423882961273193,0.8509280681610107
1686353884481248300,21.672248291015624,9.494532585144043,3.890615940093994,0.9774472117424011
1686353884501248300,21.692248291015623,9.087393760681152,3.9180920124053955,0.9498181343078613
1686353884521248300,21.712248291015626,9.424209594726562,3.9310302734375,0.8527476191520691
1686353884541248300,21.732248291015626,10.324162483215332,3.9031808376312256,0.9265273213386536
1686353884561248300,21.752248291015626,9.400354385375977,3.883711099624634,0.9126888513565063
1686353884581248300,21.772248291015625,9.107782363891602,3.993030548095703,0.7927201390266418
1686353884601248300,21.792248291015625,9.437463760375977,3.9641754627227783,0.8005923628807068
1686353884621248300,21.812248291015624,9.863517761230469,4.014923095703125,0.9585617780685425
1686353884641248300,21.832248291015624,8.635387420654297,3.9787802696228027,0.839435875415802
1686353884661248300,21.852248291015623,9.06975269317627,3.936192035675049,0.752325177192688
1686353884681249800,21.872249755859375,10.184301376342773,3.9744226932525635,0.9763458967208862
1686353884701248300,21.892248291015626,8.508954048156738,3.842205286026001,0.8454117774963379
1686353884721249800,21.912249755859374,10.262993812561035,4.018246173858643,0.9656485319137573
1686353884741248300,21.932248291015625,9.76064395904541,3.8893136978149414,1.129852533340454
1686353884761248300,21.952248291015625,9.059075355529785,4.021176815032959,0.8584745526313782
1686353884781248300,21.972248291015624,9.002379417419434,3.937417984008789,0.9032174348831177
1686353884801248300,21.992248291015624,9.989997863769531,4.0046186447143555,0.9122387170791626
1686353884821249800,22.012249755859376,8.794439315795898,3.7545294761657715,0.7266497611999512
1686353884841248300,22.032248291015627,9.938570022583008,3.9937009811401367,0.8828762173652649
1686353884861248300,22.052248291015626,9.218681335449219,3.8164052963256836,0.7173411250114441
1686353884881248300,22.072248291015626,9.518436431884766,3.9031903743743896,0.8944737315177917
1686353884901248300,22.092248291015625,9.16568374633789,3.9279367923736572,0.8809800148010254
1686353884921248300,22.112248291015625,10.035957336425781,3.8831748962402344,0.9278393387794495
1686353884941248300,22.132248291015625,8.492079734802246,3.8495218753814697,0.8215272426605225
1686353884961249800,22.152249755859376,9.961113929748535,4.104772567749023,0.9576902389526367
1686353884981248300,22.172248291015624,8.736471176147461,3.7203691005706787,0.7894161939620972
1686353885001248300,22.192248291015623,9.821657180786133,3.9694619178771973,0.845181941986084
1686353885021248300,22.212248291015626,9.254279136657715,3.861713409423828,1.083558201789856
1686353885041248300,22.232248291015626,9.427255630493164,3.938126802444458,0.8555153012275696
1686353885061248300,22.252248291015626,9.088265419006348,3.78897762298584,0.8501427173614502
1686353885081248300,22.272248291015625,10.627708435058594,3.986048936843872,0.9708775281906128
1686353885101248300,22.292248291015625,7.859091758728027,3.662122964859009,0.698311984539032
1686353885121248300,22.312248291015624,10.41604232788086,4.0567545890808105,0.8851171731948853
1686353885141248300,22.332248291015624,8.992334365844727,3.695000171661377,0.9419076442718506
1686353885161248300,22.352248291015623,8.417036056518555,3.7590115070343018,0.5082890391349792
1686353885181249800,22.372249755859375,9.69810676574707,3.738431215286255,0.8908154368400574
1686353885201248300,22.392248291015626,9.727631568908691,3.879650592803955,0.9054774641990662
1686353885221248300,22.412248291015626,9.850760459899902,3.780329704284668,0.8774175047874451
1686353885241248300,22.432248291015625,9.817826271057129,3.9263949394226074,0.9800233840942383
1686353885261248300,22.452248291015625,9.062225341796875,3.8743832111358643,0.9031120538711548
1686353885281248300,22.472248291015624,8.618005752563477,3.842195749282837,0.7293696403503418
1686353885301248300,22.492248291015624,9.269698143005371,3.931901693344116,0.8458810448646545
1686353885321248300,22.512248291015624,9.226995468139648,3.749999761581421,0.7809023857116699
1686353885341249800,22.532249755859375,9.628100395202637,3.7305493354797363,0.8764405846595764
1686353885361248300,22.552248291015626,8.787083625793457,3.632789373397827,0.7060117721557617
1686353885381248300,22.572248291015626,10.8812255859375,3.825982093811035,0.9878571629524231
1686353885401248300,22.592248291015625,9.26240062713623,3.6966090202331543,0.8863621950149536
1686353885421248300,22.612248291015625,8.977978706359863,3.8462085723876953,0.7124569416046143
1686353885441248300,22.632248291015625,10.12264633178711,3.9178526401519775,0.9978554248809814
1686353885461249800,22.652249755859376,8.232873916625977,3.763981819152832,0.5679142475128174
1686353885481248300,22.672248291015624,9.443096160888672,3.781277656555176,0.6349614262580872
1686353885501248300,22.692248291015623,10.144960403442383,3.7659451961517334,0.9173240065574646
1686353885521248300,22.712248291015626,8.823514938354492,3.639655828475952,0.6452469229698181
1686353885541248300,22.732248291015626,9.734527587890625,3.73663067817688,0.926038920879364
1686353885561249800,22.752249755859374,9.558198928833008,3.827888011932373,0.9479219317436218
1686353885581249800,22.772249755859374,8.440757751464844,3.673557758331299,0.7905654311180115
1686353885601248300,22.792248291015625,9.387252807617188,3.7518577575683594,0.7690463066101074
1686353885621248300,22.812248291015624,9.687572479248047,3.696072816848755,0.8478347063064575
1686353885641248300,22.832248291015624,9.536334991455078,3.6809990406036377,0.7254143953323364
1686353885661248300,22.852248291015623,9.61836051940918,3.7227442264556885,0.8299835324287415
1686353885681248300,22.872248291015627,9.817855834960938,3.7791037559509277,0.7848193645477295
1686353885701249800,22.892249755859375,9.071151733398438,3.765275001525879,0.7909293174743652
1686353885721248300,22.912248291015626,9.202545166015625,3.8351471424102783,0.8184818029403687
1686353885741248300,22.932248291015625,9.347097396850586,3.8232240676879883,0.7783262133598328
1686353885761248300,22.952248291015625,8.744792938232422,3.5722925662994385,0.5709596276283264
1686353885781249800,22.972249755859377,10.390769004821777,3.739408016204834,0.8434485197067261
1686353885801249800,22.992249755859376,9.36079216003418,3.5940511226654053,0.6641132235527039
1686353885821248300,23.012248291015624,9.540912628173828,3.6145548820495605,0.6661148071289062
1686353885841248300,23.032248291015627,9.803289413452148,3.7437076568603516,0.9556025266647339
1686353885861248300,23.052248291015626,9.01732063293457,3.7408924102783203,0.7936969995498657
1686353885881248300,23.072248291015626,9.292451858520508,3.717170476913452,0.7650623917579651
1686353885901248300,23.092248291015625,9.66796875,3.6844944953918457,0.8208377361297607
1686353885921249800,23.112249755859374,8.812893867492676,3.5866098403930664,0.6297612190246582
1686353885941248300,23.132248291015625,10.42470932006836,3.7645468711853027,0.7693623900413513
1686353885961249800,23.152249755859376,9.007245063781738,3.6451048851013184,0.6123889088630676
1686353885981249800,23.172249755859376,10.254069328308105,3.747385263442993,0.8152161240577698
1686353886001248300,23.192248291015623,8.913756370544434,3.7262492179870605,0.7848097681999207
1686353886021248300,23.212248291015626,9.182941436767578,3.780348539352417,0.6094775199890137
1686353886041248300,23.232248291015626,10.268951416015625,3.769287586212158,0.9822164177894592
1686353886061248300,23.252248291015626,8.656437873840332,3.639138698577881,0.5362628698348999
1686353886081248300,23.272248291015625,8.65334415435791,3.4634904861450195,0.55412358045578
1686353886101249800,23.292249755859373,10.615354537963867,3.7626700401306152,0.9479410648345947
1686353886121248300,23.312248291015624,8.607029914855957,3.6067116260528564,0.681073784828186
1686353886141248300,23.332248291015624,10.139387130737305,3.6725711822509766,0.692115843296051
1686353886161248300,23.352248291015623,10.548077583312988,3.7796401977539062,1.1316624879837036
1686353886181248300,23.372248291015627,8.439809799194336,3.7444357872009277,0.7122750282287598
1686353886201248300,23.392248291015626,9.708660125732422,4.001697540283203,1.0284724235534668
1686353886221248300,23.412248291015626,8.898979187011719,3.921146869659424,0.8847436904907227
1686353886241248300,23.432248291015625,9.616751670837402,3.7753305435180664,0.7596801519393921
1686353886261248300,23.452248291015625,9.138590812683105,3.7096145153045654,0.6262752413749695
1686353886281248300,23.472248291015624,10.181458473205566,3.7495877742767334,0.7343974113464355
1686353886301248300,23.492248291015624,9.430185317993164,3.660810947418213,0.6867911219596863
1686353886321248300,23.512248291015624,9.61365795135498,3.750382900238037,0.8607442378997803
1686353886341248300,23.532248291015627,9.409950256347656,3.7509286403656006,0.771909773349762
1686353886361248300,23.552248291015626,9.553467750549316,3.6674766540527344,0.8519718647003174
1686353886381248300,23.572248291015626,8.998693466186523,3.7206947803497314,0.6876817345619202
1686353886401248300,23.592248291015625,10.140689849853516,3.828711748123169,0.9230509400367737
1686353886421248300,23.612248291015625,8.814837455749512,3.706406354904175,0.6979193687438965
1686353886441248300,23.632248291015625,10.142413139343262,3.8901467323303223,0.9416490793228149
1686353886461249800,23.652249755859376,9.138197898864746,3.839581251144409,0.9187126755714417
1686353886481248300,23.672248291015624,9.651601791381836,3.9123361110687256,0.9119035601615906
1686353886501248300,23.692248291015623,9.185853004455566,3.8049514293670654,0.7869645357131958
1686353886521248300,23.712248291015626,9.926178932189941,3.7886803150177,0.7683184742927551
1686353886541248300,23.732248291015626,9.289196014404297,3.64939546585083,0.7422983050346375
1686353886561248300,23.752248291015626,9.780994415283203,3.811023235321045,0.7865335941314697
1686353886581249800,23.772249755859374,9.134377479553223,3.6135878562927246,0.624924898147583
1686353886601249800,23.792249755859373,10.221824645996094,3.838939666748047,0.8923285603523254
1686353886621248300,23.812248291015624,9.223413467407227,3.7820534706115723,0.8535616397857666
1686353886641248300,23.832248291015624,9.251827239990234,3.7559659481048584,0.7100340723991394
1686353886661248300,23.852248291015623,9.926868438720703,3.8690202236175537,0.969996452331543
1686353886681248300,23.872248291015627,8.992104530334473,3.824287176132202,0.7821378111839294
1686353886701248300,23.892248291015626,9.774559020996094,3.8161373138427734,0.9552003145217896
1686353886721248300,23.912248291015626,9.246905326843262,3.8681678771972656,0.910907506942749
1686353886741249800,23.932249755859374,8.955826759338379,3.62410306930542,0.7582053542137146
1686353886761248300,23.952248291015625,9.80784797668457,3.7952980995178223,1.1053167581558228
1686353886781248300,23.972248291015624,9.682496070861816,3.8847646713256836,0.9984395503997803
1686353886801248300,23.992248291015624,9.152544975280762,3.6658577919006348,0.7010701298713684
1686353886821248300,24.012248291015624,9.907398223876953,3.738095998764038,0.7304134368896484
1686353886841249800,24.032249755859375,10.364584922790527,3.8319485187530518,1.0523666143417358
1686353886861248300,24.052248291015626,8.145715713500977,3.698390483856201,0.4202781617641449
1686353886881248300,24.072248291015626,10.246819496154785,3.8263845443725586,0.74733567237854
1686353886901248300,24.092248291015625,9.28398609161377,3.725310802459717,0.7655507922172546
1686353886921248300,24.112248291015625,9.187318801879883,3.824296712875366,0.639299750328064
1686353886941248300,24.132248291015625,9.830620765686035,3.7508139610290527,0.7887649536132812
1686353886961249800,24.152249755859376,9.41698932647705,3.8153138160705566,0.9466290473937988
1686353886981248300,24.172248291015624,8.481345176696777,3.727254867553711,0.7725035548210144
1686353887001248300,24.192248291015623,10.468254089355469,3.8741343021392822,1.148383617401123
1686353887021248300,24.212248291015626,9.42261028289795,3.7448952198028564,0.8214027285575867
1686353887041248300,24.232248291015626,9.342510223388672,3.6628029346466064,0.71073317527771
1686353887061248300,24.252248291015626,8.720295906066895,3.6137986183166504,0.6676758527755737
1686353887081248300,24.272248291015625,10.584267616271973,3.8147006034851074,0.8947898149490356
1686353887101248300,24.292248291015625,8.8544282913208,3.710045337677002,0.6170241236686707
1686353887121249800,24.312249755859376,9.673934936523438,3.8382978439331055,0.7044507265090942
1686353887141249800,24.332249755859376,9.460898399353027,3.7906055450439453,0.8831539750099182
1686353887161248300,24.352248291015623,9.18455982208252,3.8761932849884033,0.8111650943756104
1686353887181248300,24.372248291015627,9.31594467163086,3.846754312515259,0.9328576326370239
1686353887201248300,24.392248291015626,9.322676658630371,3.795882225036621,0.8858641982078552
1686353887221248300,24.412248291015626,9.329620361328125,3.651310682296753,0.8599684834480286
1686353887241248300,24.432248291015625,9.567258834838867,3.6883347034454346,0.8134443759918213
1686353887261249800,24.452249755859373,9.877901077270508,3.733527660369873,0.9559856057167053
1686353887281249800,24.472249755859377,9.062713623046875,3.7285094261169434,0.8584936857223511
1686353887301248300,24.492248291015624,9.182453155517578,3.773721694946289,0.9326756596565247
1686353887321248300,24.512248291015624,9.916218757629395,3.9014761447906494,0.9968976974487305
1686353887341248300,24.532248291015627,9.605815887451172,3.860037326812744,0.9817280173301697
1686353887361248300,24.552248291015626,7.950080871582031,3.6896467208862305,0.5389348268508911
1686353887381248300,24.572248291015626,11.471902847290039,3.934401035308838,1.0992354154586792
1686353887401248300,24.592248291015625,8.482905387878418,3.615790605545044,0.6274915337562561
1686353887421248300,24.612248291015625,9.716120719909668,3.7689523696899414,0.566994845867157
1686353887441248300,24.632248291015625,10.006911277770996,3.742520332336426,0.930702805519104
1686353887461249800,24.652249755859376,8.21175765991211,3.5960910320281982,0.5593238472938538
1686353887481248300,24.672248291015624,8.999086380004883,3.6115479469299316,0.7775217890739441
1686353887501248300,24.692248291015623,10.178258895874023,3.8390448093414307,1.138519525527954
1686353887521248300,24.712248291015626,9.040017127990723,3.6694397926330566,0.8804149627685547
1686353887541249800,24.732249755859375,8.929031372070312,3.6386120319366455,0.8500852584838867
1686353887561248300,24.752248291015626,10.408829689025879,3.835357904434204,1.276732087135315
1686353887581248300,24.772248291015625,8.70578670501709,3.7723138332366943,1.019039273262024
1686353887601248300,24.792248291015625,9.49930191040039,3.8801870346069336,0.9685407876968384
1686353887621248300,24.812248291015624,9.275932312011719,3.824861764907837,1.042397141456604
1686353887641248300,24.832248291015624,9.237222671508789,3.6606194972991943,0.6892427802085876
1686353887661249800,24.852249755859376,9.325502395629883,3.6427204608917236,0.6597845554351807
1686353887681249800,24.872249755859375,9.618379592895508,3.756895065307617,0.718231737613678
1686353887701249800,24.892249755859375,9.194242477416992,3.602315902709961,0.5929863452911377
1686353887721248300,24.912248291015626,8.399395942687988,3.611212730407715,0.6637206077575684
1686353887741248300,24.932248291015625,9.512929916381836,3.6281349658966064,0.7110108733177185
1686353887761249800,24.952249755859373,9.946691513061523,3.6270527839660645,0.928327739238739
1686353887781248300,24.972248291015624,8.926092147827148,3.755563974380493,0.9212696552276611
1686353887801248300,24.992248291015624,9.450210571289062,3.804884433746338,1.0410947799682617
1686353887821248300,25.012248291015624,9.53823184967041,3.805344343185425,1.1665987968444824
1686353887841248300,25.032248291015627,8.832966804504395,3.8417840003967285,1.0991204977035522
1686353887861248300,25.052248291015626,8.956765174865723,3.743123769760132,0.9353762865066528
1686353887881249800,25.072249755859374,9.977021217346191,3.7723042964935303,0.9454319477081299
1686353887901249800,25.092249755859374,10.232253074645996,3.7603812217712402,0.9810481071472168
1686353887921248300,25.112248291015625,8.563868522644043,3.7018189430236816,0.7068928480148315
1686353887941248300,25.132248291015625,10.16008186340332,3.8237411975860596,0.8995494246482849
1686353887961249800,25.152249755859376,9.471816062927246,3.680184841156006,0.7442806959152222
1686353887981248300,25.172248291015624,8.975105285644531,3.620856761932373,0.6065470576286316
1686353888001248300,25.192248291015623,9.656542778015137,3.5496530532836914,0.5834670066833496
1686353888021249800,25.212249755859375,9.96308708190918,3.6018178462982178,0.7933330535888672
1686353888041248300,25.232248291015626,8.988273620605469,3.6392343044281006,0.7110970616340637
1686353888061248300,25.252248291015626,10.259479522705078,3.804041862487793,1.0692983865737915
1686353888081248300,25.272248291015625,9.4509859085083,3.812737464904785,0.9922816753387451
1686353888101248300,25.292248291015625,9.192662239074707,3.8834621906280518,1.0740485191345215
1686353888121248300,25.312248291015624,9.342212677001953,3.9304938316345215,0.990998387336731
1686353888141249800,25.332249755859376,9.121582984924316,3.7649013996124268,0.8393017649650574
1686353888161248300,25.352248291015623,8.814943313598633,3.584656238555908,0.5962041020393372
1686353888181249800,25.372249755859375,11.032893180847168,3.7190380096435547,0.9253014922142029
1686353888201249800,25.392249755859375,10.017407417297363,3.637711763381958,0.8635789752006531
1686353888221248300,25.412248291015626,9.292318344116211,3.673107624053955,0.632921576499939
1686353888241249800,25.432249755859374,9.188400268554688,3.7931625843048096,0.8081101179122925
1686353888261248300,25.452248291015625,10.376096725463867,4.103508472442627,1.1744996309280396
1686353888281248300,25.472248291015624,8.963603973388672,3.9072508811950684,0.8097860813140869
1686353888301248300,25.492248291015624,9.615678787231445,3.8507862091064453,0.8121036291122437
1686353888321248300,25.512248291015624,9.9302396774292,3.7334702014923096,0.8853470683097839
1686353888341248300,25.532248291015627,8.496111869812012,3.5304133892059326,0.396834135055542
1686353888361248300,25.552248291015626,10.760193824768066,3.6852126121520996,0.6113162636756897
1686353888381249800,25.572249755859374,10.794057846069336,3.739158868789673,0.8176007270812988
