time,seconds_elapsed,z,y,x
1686353862882099500,0.073099365234375,-0.017575465142726898,0.007801621686667204,0.007016223389655352
1686353862902099500,0.093099365234375,0.01186823844909668,-0.0777893215417862,0.017575465142726898
1686353862922099500,0.113099365234375,-0.021537363529205322,0.05611233413219452,0.05215043947100639
1686353862942099500,0.133099365234375,-0.005881759338080883,-0.08515461534261703,-0.040456730872392654
1686353862962102500,0.1531025390625,-0.027488935738801956,-0.04337143152952194,-0.08967501670122147
1686353862982099500,0.173099365234375,-0.06745697557926178,0.09386380761861801,-0.11760028451681137
1686353863002099500,0.193099365234375,-0.04026474431157112,-0.08922123163938522,-0.20697858929634094
1686353863022099500,0.213099365234375,-0.009128072299063206,-0.17648769915103912,-0.22275637090206146
1686353863042099500,0.233099365234375,-0.0270700566470623,0.14596188068389893,-0.08876744657754898
1686353863062101000,0.25310107421875,0.0015882495790719986,-0.12915436923503876,-0.12917181849479675
1686353863082099500,0.273099365234375,-0.013823007233440876,-0.02914699912071228,-0.06461209058761597
1686353863102099500,0.293099365234375,-0.040596358478069305,0.1028347983956337,0.00457276264205575
1686353863122099500,0.313099365234375,-0.01211258489638567,-0.11295770853757858,-0.07023204863071442
1686353863142099500,0.333099365234375,-0.02471386268734932,0.02750638872385025,-0.042673300951719284
1686353863162104000,0.35310400390625,-0.029932396486401558,0.043563418090343475,-0.06155776232481003
1686353863182099500,0.373099365234375,-0.019896753132343292,-0.10630800575017929,-0.14151129126548767
1686353863202099500,0.393099365234375,-0.024329889565706253,-0.049235738813877106,-0.11737339198589325
1686353863222099500,0.413099365234375,-0.021764256060123444,0.0055850534699857235,-0.103672556579113
1686353863242099500,0.433099365234375,-0.009075712412595749,-0.08136724680662155,-0.11410962790250778
1686353863262099500,0.453099365234375,0.0020769417751580477,-0.11016517877578735,-0.1111949235200882
1686353863282099500,0.473099365234375,0.0010122909443452954,0.051225412636995316,-0.031782444566488266
1686353863302099500,0.493099365234375,-0.0015358896926045418,-0.01877974346280098,-0.026825711131095886
1686353863322099500,0.513099365234375,-0.013526301831007004,0.0028623400721699,0.005113814491778612
1686353863342099500,0.533099365234375,-0.018325956538319588,0.04623377323150635,0.02312561310827732
1686353863362101000,0.55310107421875,-0.012461651116609573,-0.0091455252841115,-0.01335176918655634
1686353863382099500,0.573099365234375,-0.014398965984582901,0.017243852838873863,-0.009477137587964535
1686353863402099500,0.593099365234375,-0.003403391921892762,-0.06984807550907135,-0.05173156037926674
1686353863422099500,0.613099365234375,-0.018587756901979446,0.07780677825212479,-0.0037350046914070845
1686353863442099500,0.633099365234375,-0.01895427517592907,0.023928463459014893,-0.024155355989933014
1686353863462097700,0.65309765625,-0.014468779787421227,-0.018046705052256584,-0.040194932371377945
1686353863482097700,0.67309765625,-0.025935592129826546,0.07913322746753693,0.006440265104174614
1686353863502097700,0.69309765625,-0.008203047327697277,-0.020891591906547546,-0.023579398170113564
1686353863522099500,0.713099365234375,-0.006143558770418167,-0.027349309995770454,-0.015219271183013916
1686353863542099500,0.733099365234375,-0.012164944782853127,0.03883357718586922,0.01754055917263031
1686353863562099500,0.753099365234375,0.02028072625398636,-0.13313370943069458,-0.030264008790254593
1686353863582099500,0.773099365234375,0.00548033369705081,0.03675663471221924,0.03817034885287285
1686353863602099500,0.793099365234375,-0.009599311277270317,0.06398376822471619,0.027227135375142097
1686353863622099500,0.813099365234375,-0.014521139673888683,0.023858651518821716,-0.02776818908751011
1686353863642099500,0.833099365234375,-0.026651177555322647,0.01745329238474369,-0.05612978711724281
1686353863662099500,0.853099365234375,-0.02183406800031662,0.005061454605311155,-0.06232570856809616
1686353863682097700,0.87309765625,-0.009110618382692337,-0.0286583062261343,-0.03989822790026665
1686353863702097700,0.89309765625,-0.009738937020301819,0.04052654653787613,0.021868975833058357
1686353863722097700,0.91309765625,0.01045452244579792,-0.02909463830292225,0.016283921897411346
1686353863742097700,0.93309765625,0.0009599310578778386,0.04181808978319168,0.053127821534872055
1686353863762099500,0.953099365234375,0.020036378875374794,-0.03248057886958122,0.02134537696838379
1686353863782099500,0.973099365234375,0.021711895242333412,0.029775317758321762,0.031014500185847282
1686353863802099500,0.993099365234375,0.0319744311273098,-0.03698352724313736,0.0027576202992349863
1686353863822099500,1.013099365234375,0.028850292786955833,0.03237585723400116,0.03583160787820816
1686353863842099500,1.033099365234375,0.03467969223856926,-0.08292059600353241,0.014154620468616486
1686353863862099500,1.053099365234375,0.030194196850061417,-0.07482226192951202,0.04862487316131592
1686353863882099500,1.073099365234375,0.0037873645778745413,0.06564183533191681,0.10409143567085266
1686353863902099500,1.093099365234375,-0.004241149872541428,0.058259088546037674,0.055920347571372986
1686353863922099500,1.113099365234375,-0.012391837313771248,-0.03586651757359505,-0.03298672288656235
1686353863942099500,1.133099365234375,-0.005986479111015797,-0.0020943949930369854,-0.03839724510908127
1686353863962099500,1.153099365234375,0.0017278759041801095,0.04796164855360985,-0.014905111864209175
1686353863982099500,1.173099365234375,0.022602014243602753,-0.07593927532434464,-0.027035150676965714
1686353864002099500,1.193099365234375,0.02710496261715889,-0.02701769582927227,0.03265510872006416
1686353864022099500,1.213099365234375,0.016266468912363052,-0.005078908056020737,0.06316346675157547
1686353864042099500,1.233099365234375,0.005201081279665232,0.014608405530452728,0.05890486389398575
1686353864062099500,1.253099365234375,0.00027925267932005227,-0.06009168550372124,-0.0013788101496174932
1686353864082099500,1.273099365234375,-0.0013089969288557768,-0.03497639670968056,0.003804817795753479
1686353864102097700,1.29309765625,-0.008185594342648983,0.04691445082426071,0.02675589732825756
1686353864122097700,1.31309765625,0.015132004395127296,-0.1258556991815567,-0.033737216144800186
1686353864142099500,1.333099365234375,0.013997540809214115,-0.029688050970435143,0.017418386414647102
1686353864162099500,1.353099365234375,0.0009250245057046413,0.15053464472293854,0.07305948436260223
1686353864182099500,1.373099365234375,0.0077841682359576225,-0.1057145893573761,-0.054017938673496246
1686353864202099500,1.393099365234375,-0.012234757654368877,0.06928957253694534,-0.015132004395127296
1686353864222099500,1.413099365234375,-0.01624901592731476,0.04122467711567879,-0.03480186685919762
1686353864242099500,1.433099365234375,0.012740903533995152,-0.21844540536403656,-0.08834856748580933
1686353864262099500,1.453099365234375,0.0041015236638486385,0.09559167921543121,0.07829546928405762
1686353864282099500,1.473099365234375,0.02658136375248432,-0.04180063679814339,0.06466444581747055
1686353864302099500,1.493099365234375,0.02897246554493904,-0.06407103687524796,0.0665144994854927
1686353864322097700,1.51309765625,0.011763518676161766,0.07405432313680649,0.0783303752541542
1686353864342099500,1.533099365234375,0.009878563694655895,-0.05452408641576767,-0.01754055917263031
1686353864362099500,1.553099365234375,-0.00518362782895565,0.028640853241086006,-0.017575465142726898
1686353864382099500,1.573099365234375,-0.004869468510150909,-0.013665927574038506,-0.04649557173252106
1686353864402099500,1.593099365234375,0.005113814491778612,-0.03277728334069252,-0.03569198399782181
1686353864422097700,1.61309765625,0.00769690191373229,-0.03260274976491928,-0.003403391921892762
1686353864442099500,1.633099365234375,0.02488839440047741,-0.08257152885198593,0.003630284918472171
1686353864462099500,1.653099365234375,0.004904375411570072,0.056496307253837585,0.058974675834178925
1686353864482099500,1.673099365234375,0.009442231617867947,-0.07895869761705399,0.0028623400721699
1686353864502099500,1.693099365234375,-0.0037350046914070845,0.05248204991221428,0.037088245153427124
1686353864522099500,1.713099365234375,-0.008098327554762363,0.11302752047777176,0.034836772829294205
1686353864542099500,1.733099365234375,0.01302015595138073,-0.1526813954114914,-0.07070329040288925
1686353864562099500,1.753099365234375,0.0027925267349928617,-0.02776818908751011,-0.009040805511176586
1686353864582099500,1.773099365234375,0.004153883550316095,0.07569492608308792,0.05190609022974968
1686353864602097700,1.79309765625,0.02972295694053173,-0.1765575110912323,-0.020298179239034653
1686353864622099500,1.813099365234375,0.0027925267349928617,0.09962339699268341,0.0728849470615387
1686353864642097700,1.83309765625,-0.010978121310472488,-0.04366813600063324,-0.0034732052590698004
1686353864662099500,1.853099365234375,-0.010070549324154854,-0.061278510838747025,-0.023335052654147148
1686353864682099500,1.873099365234375,-0.020490165799856186,0.1278977245092392,0.04820599406957626
1686353864702097700,1.89309765625,-0.0036826448049396276,-0.09834930300712585,-0.04680972918868065
1686353864722097700,1.91309765625,-0.003909537568688393,0.05775294452905655,0.00019198621157556772
1686353864742097700,1.93309765625,0.005811946466565132,0.02727949619293213,-0.006387905217707157
1686353864762097700,1.95309765625,0.04845033958554268,-0.1607273668050766,-0.03677408769726753
1686353864782097700,1.97309765625,0.02822197414934635,0.09882054477930069,0.09714502841234207
1686353864802097700,1.99309765625,0.03183480724692345,-0.022863812744617462,0.058887407183647156
1686353864822097700,2.01309765625,0.02666863054037094,-0.13730505108833313,0.009442231617867947
1686353864842097700,2.03309765625,-0.023579398170113564,0.16182692348957062,0.10335839539766312
1686353864862097700,2.05309765625,-0.012252211570739746,-0.027611108496785164,0.001117010717280209
1686353864882099500,2.073099365234375,-0.010629055090248585,-0.047909289598464966,-0.03321361541748047
1686353864902099500,2.093099365234375,-0.023177972063422203,0.11669271439313889,0.018291050568223
1686353864922099500,2.113099365234375,0.009686577133834362,-0.08911651372909546,-0.056932639330625534
1686353864942099500,2.133099365234375,0.01061160210520029,-0.03551745042204857,-0.016510814428329468
1686353864962097700,2.15309765625,0.0011519172694534063,-0.006021386012434959,0.01710422709584236
1686353864982097700,2.17309765625,-0.003490658476948738,0.012479104101657867,0.031869713217020035
1686353865002097700,2.19309765625,-0.010559242218732834,-0.004485496319830418,0.010768681764602661
1686353865022097700,2.21309765625,-0.017261305823922157,0.008779006078839302,-0.007871435023844242
1686353865042097700,2.23309765625,-0.010908307507634163,0.016231561079621315,-0.003577925032004714
1686353865062097700,2.25309765625,0.0035604715812951326,-0.053564153611660004,-0.020978856831789017
1686353865082097700,2.27309765625,0.003228859044611454,-0.012845623306930065,0.015062191523611546
1686353865102097700,2.29309765625,-0.00031415926059708,0.04811872914433479,0.039043016731739044
1686353865122097700,2.31309765625,0.006928957067430019,-0.12692034244537354,-0.036477379500865936
1686353865142097700,2.33309765625,-0.020804325118660927,0.09581857919692993,0.02759365551173687
1686353865162099500,2.353099365234375,-0.022200588136911392,0.04689699783921242,-0.0103672556579113
1686353865182099500,2.373099365234375,-0.003577925032004714,-0.11622147262096405,-0.06937684118747711
1686353865202099500,2.393099365234375,-0.007923794910311699,0.0910014659166336,0.032183870673179626
1686353865222097700,2.41309765625,0.012758356519043446,-0.04906120523810387,0.0022165682166814804
1686353865242097700,2.43309765625,0.00753982225432992,0.029705503955483437,0.03940953314304352
1686353865262097700,2.45309765625,0.00830776710063219,-0.02410299703478813,0.008045967668294907
1686353865282097700,2.47309765625,0.002740166848525405,0.0057246801443398,0.008883725851774216
1686353865302097700,2.49309765625,-0.006667157635092735,0.027296949177980423,-0.0011344640515744686
1686353865322097700,2.51309765625,-0.005375613924115896,-0.03960151970386505,-0.03591887652873993
1686353865342097700,2.53309765625,-0.0077667152509093285,-0.009721484035253525,-0.01357866171747446
1686353865362097700,2.55309765625,-0.007278022821992636,0.014381512999534607,0.018308503553271294
1686353865382097700,2.57309765625,0.0019198621157556772,-0.018884463235735893,0.008848818950355053
1686353865402097700,2.59309765625,-0.0019547687843441963,0.00815068744122982,0.004607669077813625
1686353865422099500,2.613099365234375,-0.012287117540836334,0.08374089747667313,0.015498523600399494
1686353865442097700,2.63309765625,-0.010437068529427052,-0.055693455040454865,-0.05859070271253586
1686353865462097700,2.65309765625,-0.015498523600399494,-0.03529055789113045,-0.0417657271027565
1686353865482097700,2.67309765625,-0.018971728160977364,0.14014993607997894,0.03644247353076935
1686353865502097700,2.69309765625,0.006440265104174614,-0.10932742059230804,-0.049497537314891815
1686353865522099500,2.713099365234375,-0.004834562074393034,-0.00205948855727911,0.01811651699244976
1686353865542097700,2.73309765625,-0.007138396613299847,0.10864674299955368,0.056897733360528946
1686353865562097700,2.75309765625,0.000017453292457503267,-0.05743878707289696,-0.023282691836357117
1686353865582097700,2.77309765625,-0.03064798191189766,0.06340780854225159,-0.005166174378246069
1686353865602097700,2.79309765625,-0.02612757869064808,-0.029391344636678696,-0.05899212881922722
1686353865622097700,2.81309765625,-0.017575465142726898,-0.07110471278429031,-0.07049384713172913
1686353865642097700,2.83309765625,-0.016179202124476433,0.08883725851774216,0.003508111694827676
1686353865662097700,2.85309765625,0.01061160210520029,-0.06867870688438416,-0.030839968472719193
1686353865682097700,2.87309765625,-0.003351032268255949,0.0783478319644928,0.02626720443367958
1686353865702097700,2.89309765625,0.013002702966332436,-0.046268679201602936,-0.019024088978767395
1686353865722097700,2.91309765625,0.006684611085802317,0.0045378562062978745,-0.001029744278639555
1686353865742097700,2.93309765625,-0.00724311638623476,0.06822492182254791,0.03029891662299633
1686353865762097700,2.95309765625,0.0033684854861348867,-0.1134987622499466,-0.0368788056075573
1686353865782097700,2.97309765625,-0.011100294068455696,0.04761258140206337,0.027401668950915337
1686353865802097700,2.99309765625,-0.022689281031489372,0.020210912451148033,0.013229595497250557
1686353865822097700,3.01309765625,-0.006998770404607058,-0.029705503955483437,-0.019896753132343292
1686353865842097700,3.03309765625,-0.01507964450865984,0.04288274049758911,-0.00593411922454834
1686353865862097700,3.05309765625,-0.021851522848010063,0.08588765561580658,-0.012915436178445816
1686353865882097700,3.07309765625,-0.01021017599850893,-0.0878424197435379,-0.08443903177976608
1686353865902099500,3.093099365234375,-0.020717058330774307,0.09124581515789032,-0.0077841682359576225
1686353865922099500,3.113099365234375,-0.013613567687571049,-0.0518362782895565,-0.03876376152038574
1686353865942099500,3.133099365234375,-0.01096066739410162,-0.07075564563274384,-0.00921533815562725
1686353865962099500,3.153099365234375,-0.02192133478820324,0.06515314429998398,0.06204645335674286
1686353865982099500,3.173099365234375,-0.0051312679424881935,-0.05429719388484955,0.017819812521338463
1686353866002099500,3.193099365234375,-0.0028448866214603186,-0.0017976891249418259,0.02600540593266487
1686353866022099500,3.213099365234375,-0.01754055917263031,0.12842132151126862,0.03021164983510971
1686353866042099500,3.233099365234375,-0.013124875724315643,-0.06316346675157547,-0.07272786647081375
1686353866062099500,3.253099365234375,-0.03230604529380798,0.08300785720348358,-0.04611159861087799
1686353866082099500,3.273099365234375,-0.03248057886958122,-0.01377064734697342,-0.08374089747667313
1686353866102099500,3.293099365234375,-0.018989183008670807,-0.06080726906657219,-0.0671253651380539
1686353866122099500,3.313099365234375,-0.009267698042094707,-0.04677482321858406,-0.0067544239573180676
1686353866142099500,3.333099365234375,-0.0016406094655394554,0.0901462584733963,0.08061675727367401
1686353866162099500,3.353099365234375,0.007347836159169674,-0.09700539708137512,0.019460421055555344
1686353866182099500,3.373099365234375,-0.0020943949930369854,0.08075638115406036,0.06785839796066284
1686353866202099500,3.393099365234375,-0.013910274021327496,0.02528982050716877,0.0050090947188436985
1686353866222099500,3.413099365234375,0.0031066860537976027,-0.06417575478553772,-0.056531213223934174
1686353866242099500,3.433099365234375,-0.002321287989616394,-0.03190461918711662,-0.04244640842080116
1686353866262099500,3.453099365234375,-0.0019896754529327154,0.11979939788579941,0.031782444566488266
1686353866282099500,3.473099365234375,0.009442231617867947,-0.11067132651805878,-0.04468042775988579
1686353866302099500,3.493099365234375,-0.004153883550316095,0.12006119638681412,0.03246312215924263
1686353866322099500,3.513099365234375,0.009285151958465576,-0.08204792439937592,-0.04000294581055641
1686353866342099500,3.533099365234375,0.0018500490114092827,-0.010890854522585869,0.004660028964281082
1686353866362099500,3.553099365234375,-0.002740166848525405,0.008674286305904388,0.03768165782094002
1686353866382099500,3.573099365234375,0.007923794910311699,-0.0610690712928772,0.030403634533286095
1686353866402099500,3.593099365234375,0.01417207345366478,0.011414453387260437,0.07649777829647064
1686353866422099500,3.613099365234375,0.01891936920583248,0.03923500329256058,0.05869542434811592
1686353866442099500,3.633099365234375,0.03206169977784157,-0.08780751377344131,-0.015149458311498165
1686353866462097700,3.65309765625,0.005410520825535059,0.0688357874751091,-0.004625122528523207
1686353866482099500,3.673099365234375,0.002740166848525405,-0.01251401100307703,-0.06719517707824707
1686353866502099500,3.693099365234375,0.0034382985904812813,-0.07422885298728943,-0.06340780854225159
1686353866522099500,3.713099365234375,-0.009878563694655895,0.0008552113431505859,0.0045378562062978745
1686353866542099500,3.733099365234375,-0.008203047327697277,0.03480186685919762,0.03269001841545105
1686353866562099500,3.753099365234375,0.01895427517592907,-0.1299223154783249,0.006108652334660292
1686353866582099500,3.773099365234375,0.004049163777381182,0.16950637102127075,0.11669271439313889
1686353866602097700,3.79309765625,0.02436479553580284,-0.04401720315217972,0.012828170321881771
1686353866622097700,3.81309765625,0.031171580776572227,-0.18011797964572906,-0.028291787952184677
1686353866642097700,3.83309765625,0.02445206232368946,0.11772245913743973,0.09711012244224548
1686353866662099500,3.853099365234375,0.029042279347777367,-0.004485496319830418,0.04283038154244423
1686353866682099500,3.873099365234375,0.029112091287970543,-0.1111949235200882,-0.00012217304902151227
1686353866702097700,3.89309765625,0.00022689280740451068,0.1508837193250656,0.06342526525259018
1686353866722099500,3.913099365234375,0.007173303049057722,0.010663961991667747,-0.026895523071289062
1686353866742097700,3.93309765625,0.013055062852799892,-0.1926668882369995,-0.09066985547542572
1686353866762097700,3.95309765625,-0.0012042771559208632,0.11358603090047836,0.04237659275531769
1686353866782097700,3.97309765625,0.0034732052590698004,-0.06527531147003174,0.005235987715423107
1686353866802097700,3.99309765625,0.015027284622192383,-0.0910014659166336,0.037454765290021896
1686353866822097700,4.01309765625,0.0024958208668977022,0.10850711911916733,0.11573278158903122
1686353866842097700,4.03309765625,0.015114551410079002,-0.025272367522120476,0.039968039840459824
1686353866862099500,4.053099365234375,0.0014660765882581472,0.031381018459796906,0.009337511844933033
1686353866882099500,4.073099365234375,0.00027925267932005227,-0.01202531810849905,-0.04806636646389961
1686353866902099500,4.093099365234375,-0.000715585018042475,-0.06140068173408508,-0.06342526525259018
1686353866922099500,4.113099365234375,-0.003281218931078911,-0.01211258489638567,-0.02050761878490448
1686353866942099500,4.133099365234375,-0.0017802357906475663,-0.025010569021105766,0.008848818950355053
1686353866962099500,4.153099365234375,-0.008133234456181526,0.052464596927165985,0.060039326548576355
1686353866982099500,4.173099365234375,-0.0003490658418741077,-0.028501227498054504,0.01993165910243988
1686353867002099500,4.193099365234375,0.0026703537441790104,-0.015690509229898453,0.013700834475457668
1686353867022099500,4.213099365234375,0.0027925267349928617,0.025743605569005013,0.027035150676965714
1686353867042099500,4.233099365234375,0.016458455473184586,-0.0743335708975792,-0.006859143730252981
1686353867062099500,4.253099365234375,0.008569566532969475,0.02431243658065796,0.043598324060440063
1686353867082099500,4.273099365234375,-0.005864306353032589,0.08274605870246887,0.046041786670684814
1686353867102099500,4.293099365234375,0.014364060014486313,-0.1178097277879715,-0.04026474431157112
1686353867122099500,4.313099365234375,-0.002373647876083851,0.06801547855138779,0.017208946868777275
1686353867142099500,4.333099365234375,-0.02068215236067772,0.06230825558304787,-0.0037350046914070845
1686353867162099500,4.353099365234375,0.0019024088978767395,-0.13257521390914917,-0.05855579674243927
1686353867182099500,4.373099365234375,-0.009651671163737774,0.07473500072956085,0.02975786291062832
1686353867202099500,4.393099365234375,0.0029321531765162945,-0.010105456225574017,0.012950343079864979
1686353867222099500,4.413099365234375,0.015201817266643047,-0.060440752655267715,0.008569566532969475
1686353867242099500,4.433099365234375,0.003804817795753479,0.033772122114896774,0.050736721605062485
1686353867262099500,4.453099365234375,0.008412486873567104,0.022916173562407494,0.027122415602207184
1686353867282099500,4.473099365234375,0.004590216092765331,-0.0469493567943573,-0.018500490114092827
1686353867302099500,4.493099365234375,-0.004852015525102615,0.03790855035185814,0.001745329238474369
1686353867322099500,4.513099365234375,-0.004450589418411255,-0.006510077975690365,-0.025359634310007095
1686353867342099500,4.533099365234375,-0.0020769417751580477,0.015603243373334408,-0.01111774705350399
1686353867362099500,4.553099365234375,0.009843656793236732,-0.08541641384363174,-0.02577851340174675
1686353867382099500,4.573099365234375,0.0007504915702156723,0.08616690337657928,0.047595128417015076
1686353867402107100,4.593107177734375,0.010733774863183498,-0.09616763889789581,-0.009197885170578957
1686353867422099500,4.613099365234375,-0.0029321531765162945,0.07061602175235748,0.052778758108615875
1686353867442099500,4.633099365234375,-0.00945968460291624,0.06689847260713577,0.028466319665312767
1686353867462099500,4.653099365234375,-0.004136430099606514,-0.05412266030907631,-0.04686209186911583
1686353867482099500,4.673099365234375,-0.008028514683246613,-0.039793506264686584,-0.049584802240133286
1686353867502099500,4.693099365234375,-0.01603957638144493,0.06141813471913338,0.005305801052600145
1686353867522099500,4.713099365234375,0.0005585053586401045,-0.112922802567482,-0.030368728563189507
1686353867542099500,4.733099365234375,0.0008377580670639873,-0.026860617101192474,0.05092870816588402
1686353867562099500,4.753099365234375,-0.0021118484437465668,0.06520549952983856,0.11531390249729156
1686353867582099500,4.773099365234375,0.007365289609879255,0.03865904361009598,0.08534660190343857
1686353867602099500,4.793099365234375,0.015463616698980331,0.01186823844909668,0.0007330382941290736
1686353867622099500,4.813099365234375,0.023980824276804924,0.02356194518506527,-0.0794997438788414
1686353867642099500,4.833099365234375,0.0279427208006382,-0.0506843626499176,-0.1293463557958603
1686353867662099500,4.853099365234375,0.01953023485839367,-0.06630505621433258,-0.08314748853445053
1686353867682099500,4.873099365234375,0.008639379404485226,0.06881833076477051,0.0380132719874382
1686353867702099500,4.893099365234375,0.012810716405510902,-0.03928736224770546,0.04921828582882881
1686353867722099500,4.913099365234375,0.019390607252717018,-0.006684611085802317,0.08782497048377991
1686353867742099500,4.933099365234375,0.012758356519043446,0.05553637817502022,0.0938987135887146
1686353867762099500,4.953099365234375,0.007173303049057722,0.0041015236638486385,0.03314380347728729
1686353867782099500,4.973099365234375,0.006649704650044441,-0.08403760194778442,-0.034662239253520966
1686353867802099500,4.993099365234375,0.0006806784076616168,0.05567600205540657,0.020751964300870895
1686353867822099500,5.013099365234375,-0.007155850064009428,0.017592918127775192,0.01211258489638567
1686353867842099500,5.033099365234375,0.002914699725806713,-0.059149209409952164,-0.019216075539588928
1686353867862099500,5.053099365234375,-0.006562437862157822,0.0783652812242508,0.03141592815518379
1686353867882099500,5.073099365234375,0.005113814491778612,-0.04951499029994011,-0.02445206232368946
1686353867902099500,5.093099365234375,-0.0019198621157556772,0.05736897140741348,0.01286307629197836
1686353867922099500,5.113099365234375,-0.003403391921892762,-0.045064400881528854,-0.021135937422513962
1686353867942099500,5.133099365234375,-0.010890854522585869,0.09780824929475784,0.03661700710654259
1686353867962099500,5.153099365234375,-0.010471975430846214,-0.018622662872076035,-0.007260569836944342
1686353867982099500,5.173099365234375,-0.0014660765882581472,-0.03551745042204857,-0.009983283467590809
1686353868002099500,5.193099365234375,-0.009599311277270317,-0.012932890094816685,0.001745329238474369
1686353868022099500,5.213099365234375,-0.012548916973173618,0.14467033743858337,0.03738495334982872
1686353868042099500,5.233099365234375,0.009529497474431992,-0.23134338855743408,-0.09519025683403015
1686353868062099500,5.253099365234375,-0.006771877408027649,0.08480554819107056,0.040683623403310776
1686353868082099500,5.273099365234375,-0.022130774334073067,0.16378170251846313,0.07424630969762802
1686353868102099500,5.293099365234375,-0.005846852902323008,-0.14245377480983734,-0.03281218931078911
1686353868122099500,5.313099365234375,-0.0119555052369833,0.0239110104739666,0.023352505639195442
1686353868142099500,5.333099365234375,-0.020176006481051445,0.18713420629501343,0.06646213680505753
1686353868162099500,5.353099365234375,0.00678933085873723,-0.25045475363731384,-0.07208209484815598
1686353868182099500,5.373099365234375,-0.01211258489638567,0.0913156270980835,0.05276130139827728
1686353868202099500,5.393099365234375,-0.003403391921892762,0.14650294184684753,0.06736970692873001
1686353868222099500,5.413099365234375,0.020001472905278206,-0.09026842564344406,-0.01895427517592907
1686353868242099500,5.433099365234375,0.007871435023844242,0.007138396613299847,-0.00013962633966002613
1686353868262099500,5.453099365234375,0.004974188283085823,0.08136724680662155,0.00823795422911644
1686353868282099500,5.473099365234375,0.016702800989151,-0.15936601161956787,-0.07424630969762802
1686353868302099500,5.493099365234375,-0.0037873645778745413,0.0964992567896843,0.02183406800031662
1686353868322099500,5.513099365234375,-0.0017278759041801095,0.06867870688438416,-0.0020943949930369854
1686353868342099500,5.533099365234375,0.00989601667970419,-0.14418165385723114,-0.09096655994653702
1686353868362099500,5.553099365234375,0.0016057029133662581,0.0849800780415535,-0.019303342327475548
1686353868382099500,5.573099365234375,0.0022165682166814804,0.03410373255610466,-0.05654866620898247
1686353868402105600,5.593105712890625,0.007627088576555252,0.007627088576555252,-0.08435176312923431
1686353868422099500,5.613099365234375,0.008779006078839302,0.005811946466565132,-0.09285151958465576
1686353868442099500,5.633099365234375,0.01457349956035614,-0.051138147711753845,-0.06829473376274109
1686353868462099500,5.653099365234375,0.0010821041651070118,0.02750638872385025,0.013247049413621426
1686353868482099500,5.673099365234375,0.00013962633966002613,-0.040037851780653,0.025010569021105766
1686353868502099500,5.693099365234375,0.0007853981805965304,0.03556980937719345,0.06928957253694534
1686353868522099500,5.713099365234375,0.0005061454721726477,-0.010821041651070118,0.03808308392763138
1686353868542099500,5.733099365234375,-0.0019024088978767395,0.034749504178762436,0.022183135151863098
1686353868562099500,5.753099365234375,0,0.018221236765384674,-0.02197369560599327
1686353868582099500,5.773099365234375,0.004782202187925577,0.051923543214797974,-0.026284659281373024
1686353868602099500,5.793099365234375,0.02254965342581272,-0.04202752932906151,-0.04974188283085823
1686353868622099500,5.813099365234375,0.02839650772511959,-0.0023561944253742695,0.010471975430846214
1686353868642099500,5.833099365234375,0.01984439417719841,-0.013369222171604633,0.05216789245605469
1686353868662099500,5.853099365234375,0.016196655109524727,0.002007128670811653,0.08918632566928864
1686353868682099500,5.873099365234375,0.005794493015855551,0.08620180934667587,0.10114183276891708
1686353868702099500,5.893099365234375,0.00799360778182745,0.018413223326206207,0.03710569813847542
1686353868722099500,5.913099365234375,0.014957471750676632,-0.0038746309000998735,-0.024818582460284233
1686353868742099500,5.933099365234375,0.03454006463289261,0.001343903481028974,-0.03588397055864334
1686353868762099500,5.953099365234375,0.03698352724313736,-0.0587477833032608,-0.027122415602207184
1686353868782099500,5.973099365234375,0.033056534826755524,-0.034033920615911484,0.028623400256037712
1686353868802099500,5.993099365234375,0.032358404248952866,-0.03911282867193222,0.06318091601133347
1686353868822099500,6.013099365234375,0.017523106187582016,0.027349309995770454,0.08032005280256271
1686353868842099500,6.033099365234375,0.029827676713466644,-0.004834562074393034,0.04084070399403572
1686353868862099500,6.053099365234375,0.005829399451613426,0.013648474588990211,-0.0041015236638486385
1686353868882099500,6.073099365234375,0.00331612559966743,0.10782644152641296,-0.01572541706264019
1686353868902099500,6.093099365234375,0.03249803185462952,-0.13898056745529175,-0.11845549941062927
1686353868922099500,6.113099365234375,0.04314453899860382,0.025237461552023888,-0.016755159944295883
1686353868942099500,6.133099365234375,0.05708971992135048,-0.07929030805826187,0.021450096741318703
1686353868962099500,6.153099365234375,0.06098180264234543,-0.16210618615150452,0.07946483790874481
1686353868982099500,6.173099365234375,0.029251718893647194,0.10403907299041748,0.2174331247806549
1686353869002099500,6.193099365234375,0.018011797219514847,0.001658062799833715,0.16454963386058807
1686353869022099500,6.213099365234375,-0.0020769417751580477,0.028588492423295975,0.11257373541593552
1686353869042099500,6.233099365234375,-0.011658798903226852,0.09058258682489395,0.012060225009918213
1686353869062099500,6.253099365234375,0,-0.007958701811730862,-0.15156438946723938
1686353869082099500,6.273099365234375,0.015830136835575104,-0.012653636746108532,-0.19800759851932526
1686353869102099500,6.293099365234375,0.01944296807050705,-0.03790855035185814,-0.14845770597457886
1686353869122099500,6.313099365234375,0.013159782625734806,-0.011571533046662807,-0.02984512969851494
1686353869142099500,6.333099365234375,-0.007173303049057722,0.048956483602523804,0.07454301416873932
1686353869162099500,6.353099365234375,-0.01673770695924759,0.04583234712481499,0.09281660616397858
1686353869182099500,6.373099365234375,-0.0028972465079277754,0.027523841708898544,0.05063199996948242
1686353869202099500,6.393099365234375,0.020123645663261414,0.02857103943824768,-0.0015533430268988013
1686353869222099500,6.413099365234375,0.02848377265036106,0.006440265104174614,-0.05778785049915314
1686353869242099500,6.433099365234375,0.015463616698980331,0.06218608096241951,-0.06876597553491592
1686353869262099500,6.453099365234375,0.014852751977741718,-0.022741639986634254,-0.09845402091741562
1686353869282099500,6.473099365234375,0.00617846567183733,-0.028675759211182594,-0.07508406043052673
1686353869302099500,6.493099365234375,-0.018971728160977364,0.027576202526688576,-0.018675023689866066
1686353869322099500,6.513099365234375,-0.029862582683563232,-0.019076447933912277,-0.005672320257872343
1686353869342099500,6.533099365234375,-0.0411897711455822,0.01096066739410162,0.032882001250982285
1686353869362099500,6.553099365234375,-0.023527037352323532,0.10447540879249573,0.08913396298885345
1686353869382099500,6.573099365234375,0.0007679448463022709,-0.05510004609823227,0.03556980937719345
1686353869402099500,6.593099365234375,0.024958208203315735,0.11229448020458221,0.07737044245004654
1686353869422099500,6.613099365234375,0.05145230516791344,-0.150307759642601,-0.021537363529205322
1686353869442099500,6.633099365234375,0.02684316411614418,0.09581857919692993,0.04738568887114525
1686353869462099500,6.653099365234375,0.028536133468151093,-0.08648106455802917,-0.019303342327475548
1686353869482099500,6.673099365234375,0.010245082899928093,-0.10105456411838531,-0.01302015595138073
1686353869502099500,6.693099365234375,-0.008412486873567104,0.11702432483434677,0.07206464558839798
1686353869522099500,6.713099365234375,0.009093165397644043,-0.1025380939245224,-0.014643312431871891
1686353869542099500,6.733099365234375,0.01242674421519041,-0.06613052636384964,0.02183406800031662
1686353869562099500,6.753099365234375,0.007173303049057722,0.09192649275064468,0.089884452521801
1686353869582099500,6.773099365234375,0.03652974218130112,-0.08365362882614136,0.009023352526128292
1686353869602099500,6.793099365234375,0.03387684002518654,-0.015184364281594753,0.02520255371928215
1686353869622099500,6.813099365234375,0.015760323032736778,0.10503391176462173,0.04593706503510475
1686353869642099500,6.833099365234375,0.0207345113158226,-0.07449065148830414,-0.04747295379638672
1686353869662099500,6.853099365234375,0.015795229002833366,-0.04352851212024689,-0.024731315672397614
1686353869682099500,6.873099365234375,0.027401668950915337,-0.00518362782895565,0.013665927574038506
1686353869702099500,6.893099365234375,0.03127630054950714,-0.04625122621655464,0.007941247895359993
1686353869722099500,6.913099365234375,0.01979203335940838,-0.04368559271097183,0.01607448235154152
1686353869742099500,6.933099365234375,0.0014486232539638877,0.017470745369791985,0.03296926990151405
1686353869762099500,6.953099365234375,-0.003490658476948738,-0.0014137167017906904,0.002809980185702443
1686353869782099500,6.973099365234375,-0.005305801052600145,-0.0159872155636549,-0.015306537039577961
1686353869802099500,6.993099365234375,0.0045553091913461685,0.04672246426343918,-0.00724311638623476
1686353869822099500,7.013099365234375,0.018343409523367882,-0.033772122114896774,-0.04136430472135544
1686353869842099500,7.033099365234375,0.024923302233219147,-0.05403539165854454,-0.02298598550260067
1686353869862099500,7.053099365234375,0.015428710728883743,0.018971728160977364,0.026808258146047592
1686353869882099500,7.073099365234375,0.008115780539810658,0.0019024088978767395,0.032934363931417465
1686353869902099500,7.093099365234375,0.00457276264205575,-0.03413863852620125,0.018168877810239792
1686353869922099500,7.113099365234375,0.002809980185702443,0.09709266573190689,0.04516912251710892
1686353869942099500,7.133099365234375,0.011013027280569077,-0.04344124346971512,-0.05037020146846771
1686353869962099500,7.153099365234375,0.012374384328722954,-0.03729768469929695,-0.06705555319786072
1686353869982099500,7.173099365234375,0.005061454605311155,0.038152895867824554,-0.02940879762172699
1686353870002099500,7.193099365234375,0.006265731994062662,-0.055169858038425446,-0.045465826988220215
1686353870022099500,7.213099365234375,-0.012723450548946857,0.00251327408477664,-0.004660028964281082
1686353870042099500,7.233099365234375,-0.014137166552245617,0.0131772356107831,0.007731808349490166
1686353870062099500,7.253099365234375,0.002827433403581381,-0.02595304511487484,-0.02586578018963337
1686353870082099500,7.273099365234375,0.007923794910311699,-0.00457276264205575,-0.040683623403310776
1686353870102099500,7.293099365234375,0.011501720175147057,0.008447393774986267,-0.03413863852620125
1686353870122099500,7.313099365234375,0.005794493015855551,-0.05434955283999443,-0.028152160346508026
1686353870142099500,7.333099365234375,-0.005986479111015797,0.038379788398742676,0.04190535470843315
1686353870162099500,7.353099365234375,-0.005393067374825478,0.00996582955121994,0.05740387737751007
1686353870182099500,7.373099365234375,0.01080358773469925,-0.052900929003953934,0.03897320106625557
1686353870202099500,7.393099365234375,0.002373647876083851,0.06628760695457458,0.07082545757293701
1686353870222099500,7.413099365234375,0.02200860157608986,-0.04527384042739868,0.007173303049057722
1686353870242099500,7.433099365234375,0.02888519875705242,-0.12196360528469086,-0.014748032204806805
1686353870262099500,7.453099365234375,0.019390607252717018,0.029618237167596817,0.05728170648217201
1686353870282099500,7.473099365234375,0.009616764262318611,-0.025499260053038597,0.05345943570137024
1686353870302099500,7.493099365234375,-0.008587019518017769,-0.07785914093255997,0.06733480095863342
1686353870322099500,7.513099365234375,-0.015620696358382702,-0.0322536826133728,0.09997245669364929
1686353870342099500,7.533099365234375,-0.04120722413063049,0.1751088798046112,0.12943361699581146
1686353870362099500,7.553099365234375,-0.014590952545404434,-0.08772024512290955,-0.07792895287275314
1686353870382099500,7.573099365234375,0.013369222171604633,0.0038920841179788113,-0.17619098722934723
1686353870402099500,7.593099365234375,0.02387610450387001,-0.014503685757517815,-0.2551496922969818
1686353870422099500,7.613099365234375,0.033196162432432175,-0.1362229436635971,-0.25103071331977844
1686353870442099500,7.633099365234375,-0.00062831852119416,0.0362853966653347,-0.08765043318271637
1686353870462101000,7.65310107421875,-0.036302849650382996,0.1370956152677536,0.0610516183078289
1686353870482099500,7.673099365234375,-0.024644048884510994,-0.1284562349319458,0.04080579802393913
1686353870502099500,7.693099365234375,-0.018657568842172623,0.10409143567085266,0.15315264463424683
1686353870522099500,7.713099365234375,0.01136209350079298,0.014538592658936977,0.07127925008535385
1686353870542099500,7.733099365234375,0.04642575979232788,-0.09255480766296387,-0.023631757125258446
1686353870562099500,7.753099365234375,0.04761258140206337,0.022183135151863098,-0.02958333119750023
1686353870582099500,7.773099365234375,0.03234095126390457,-0.007260569836944342,-0.05249950289726257
1686353870602099500,7.793099365234375,0.0032463124953210354,-0.024172810837626457,-0.04202752932906151
1686353870622099500,7.813099365234375,-0.039758600294589996,0.09210102260112762,0.0028797932900488377
1686353870642099500,7.833099365234375,-0.04646066576242447,-0.0018151424592360854,-0.038467057049274445
1686353870662099500,7.853099365234375,-0.035465091466903687,0.027471482753753662,-0.027122415602207184
1686353870682099500,7.873099365234375,-0.02125811018049717,-0.0015707963611930609,-0.03848451003432274
1686353870702099500,7.893099365234375,0.0045378562062978745,-0.09327039122581482,-0.03799581900238991
1686353870722099500,7.913099365234375,0.0008726646192371845,0.03640756756067276,0.058712877333164215
1686353870742099500,7.933099365234375,-0.002321287989616394,0.010838494636118412,0.06291911751031876
1686353870762099500,7.953099365234375,0.007260569836944342,-0.03675663471221924,0.017523106187582016
1686353870782099500,7.973099365234375,-0.007487462367862463,0.13632766902446747,0.04543092101812363
1686353870802099500,7.993099365234375,0.008185594342648983,-0.11440633237361908,-0.06782349199056625
1686353870822099500,8.013099365234375,0.004206243436783552,-0.008604473434388638,-0.029880037531256676
1686353870842099500,8.033099365234374,-0.018744835630059242,0.026825711131095886,-0.011344640515744686
1686353870862099500,8.053099365234376,-0.013735741376876831,-0.047054074704647064,-0.03228859230875969
1686353870882099500,8.073099365234375,-0.025045474991202354,0.027523841708898544,0.002600540639832616
1686353870902099500,8.093099365234375,-0.0388859361410141,0.09566149860620499,0.013142329640686512
1686353870922099500,8.113099365234374,-0.03410373255610466,0.042638394981622696,-0.053284902125597
1686353870942099500,8.133099365234376,-0.008639379404485226,-0.08681267499923706,-0.10595893859863281
1686353870962099500,8.153099365234375,-0.009494591504335403,0.0639488622546196,-0.00143117003608495
1686353870982099500,8.173099365234375,0.004520402755588293,-0.0457974411547184,0.007923794910311699
1686353871002099500,8.193099365234374,0.013386675156652927,-0.07044149190187454,0.03021164983510971
1686353871022099500,8.213099365234376,-0.0023387412074953318,0.08792968839406967,0.07913322746753693
1686353871042099500,8.233099365234375,0.0014486232539638877,-0.04455825686454773,-0.0015707963611930609
1686353871062099500,8.253099365234375,0.00251327408477664,-0.024207716807723045,-0.025499260053038597
1686353871082099500,8.273099365234375,-0.01638864167034626,0.07941248267889023,-0.0004886921960860491
1686353871102099500,8.293099365234376,-0.016004668548703194,-0.03431317210197449,-0.05267403647303581
1686353871122099500,8.313099365234375,-0.02045525796711445,0.025987952947616577,-0.016999507322907448
1686353871142099500,8.333099365234375,-0.012391837313771248,0.029705503955483437,0.0007504915702156723
1686353871162099500,8.353099365234375,0.017697637900710106,-0.1509011685848236,-0.02958333119750023
1686353871182099500,8.373099365234374,0.00010471975838299841,0.15692254900932312,0.10060077905654907
1686353871202099500,8.393099365234375,0.029042279347777367,-0.1966986060142517,-0.02776818908751011
1686353871222099500,8.413099365234375,0.0038746309000998735,0.11070623248815536,0.08454374969005585
1686353871242099500,8.433099365234375,-0.005916666239500046,0.06387905031442642,0.0388859361410141
1686353871262099500,8.453099365234374,0.011885692365467548,-0.16050048172473907,-0.0627794936299324
1686353871282099500,8.473099365234376,-0.013648474588990211,0.2128603607416153,0.058538343757390976
1686353871302099500,8.493099365234375,0.01794198527932167,-0.18013542890548706,-0.07360053062438965
1686353871322099500,8.513099365234375,0.024958208203315735,-0.16200146079063416,-0.026371924206614494
1686353871342099500,8.533099365234374,-0.007400196045637131,0.27349308133125305,0.1437278687953949
1686353871362099500,8.553099365234376,0.012880530208349228,-0.2191784530878067,-0.03841469809412956
1686353871382099500,8.573099365234375,-0.010419615544378757,0.11903145164251328,0.04110250249505043
1686353871402099500,8.593099365234375,-0.013194689527153969,0.069708451628685,-0.010192723013460636
1686353871422099500,8.613099365234374,0.006056292448192835,-0.179716557264328,-0.08937831223011017
1686353871442099500,8.633099365234376,-0.007592182140797377,0.15653857588768005,0.05749114602804184
1686353871462099500,8.653099365234375,0.017156586050987244,-0.11503464728593826,-0.004817108623683453
1686353871482099500,8.673099365234375,0.02085668407380581,-0.017383478581905365,0.05506513640284538
1686353871502099500,8.693099365234374,0.009005898609757423,0.08904670178890228,0.08145451545715332
1686353871522099500,8.713099365234376,0.014538592658936977,-0.07511897385120392,-0.020315632224082947
1686353871542099500,8.733099365234375,0.012618730776011944,0.0026529005263000727,-0.008639379404485226
1686353871562099500,8.753099365234375,0.007208209950476885,0.001658062799833715,0.00296705961227417
1686353871582099500,8.773099365234375,0.022689281031489372,-0.05614724010229111,0.010192723013460636
1686353871602099500,8.793099365234376,0.0154810706153512,0.047193702310323715,0.08014551550149918
1686353871622099500,8.813099365234375,0.021275563165545464,-0.028675759211182594,0.03490658476948738
1686353871642099500,8.833099365234375,0.009756390936672688,0.01333431527018547,0.009878563694655895
1686353871662099500,8.853099365234375,-0.006021386012434959,-0.00830776710063219,-0.020717058330774307
1686353871682099500,8.873099365234374,0.0027052604127675295,-0.020926497876644135,-0.017418386414647102
1686353871702099500,8.893099365234375,0.0021816615480929613,0.03902556374669075,0.020961403846740723
1686353871722099500,8.913099365234375,0.004520402755588293,-0.04948008432984352,0.02436479553580284
1686353871742099500,8.933099365234375,0.01532399095594883,-0.007906341925263405,0.06304129213094711
1686353871762099500,8.953099365234374,0.0041015236638486385,0.04490732029080391,0.06506587564945221
1686353871782099500,8.973099365234376,0.001658062799833715,0.02649409882724285,0.024469515308737755
1686353871802099500,8.993099365234375,0.005061454605311155,-0.08679522573947906,-0.04256857931613922
1686353871822099500,9.013099365234375,-0.005742133129388094,0.07927285134792328,0.006719517521560192
1686353871842099500,9.033099365234374,0.0029845130629837513,-0.09436995536088943,-0.05373868718743324
1686353871862099500,9.053099365234376,0.002949606394395232,0.006422811653465033,0.015463616698980331
1686353871882099500,9.073099365234375,0.003996803890913725,-0.017069319263100624,0.026860617101192474
1686353871902099500,9.093099365234375,-0.002024581888690591,0.01160643994808197,0.03237585723400116
1686353871922099500,9.113099365234374,0.001518436474725604,-0.06757915019989014,-0.008011061698198318
1686353871942099500,9.133099365234376,-0.0025307273026555777,0.05749114602804184,0.035360369831323624
1686353871962099500,9.153099365234375,-0.005986479111015797,-0.01021017599850893,-0.00502654816955328
1686353871982099500,9.173099365234375,0.0031590459402650595,0.01909390278160572,-0.006667157635092735
1686353872002099500,9.193099365234374,0.006422811653465033,-0.022200588136911392,-0.026720991358160973
1686353872022099500,9.213099365234376,0.012391837313771248,-0.0748920813202858,-0.012077677994966507
1686353872042099500,9.233099365234375,-0.005759586580097675,0.08269369602203369,0.06372196972370148
1686353872062099500,9.253099365234375,0.0017104226863011718,-0.057473693042993546,-0.001483529806137085
1686353872082099500,9.273099365234375,0.004066617228090763,-0.0829380452632904,-0.022392574697732925
1686353872102099500,9.293099365234376,-0.018849555402994156,0.11587240546941757,0.04846779257059097
1686353872122099500,9.313099365234375,0.0002617993741296232,-0.1088561862707138,-0.04482005536556244
1686353872142099500,9.333099365234375,-0.0023911010939627886,0.058276545256376266,0.009250245057046413
1686353872162099500,9.353099365234375,-0.00563741335645318,-0.024469515308737755,-0.012880530208349228
1686353872182099500,9.373099365234374,0.004747295752167702,-0.008325220085680485,-0.0016929693520069122
1686353872202099500,9.393099365234375,-0.0022689281031489372,0.04080579802393913,0.008883725851774216
1686353872222099500,9.413099365234375,0.0047996556386351585,-0.05234242230653763,-0.021991148591041565
1686353872242099500,9.433099365234375,0.0034208453726023436,0.017645278945565224,0.00898844562470913
1686353872262099500,9.453099365234374,-0.004310963209718466,-0.0041015236638486385,-0.0018325956771150231
1686353872282099500,9.473099365234376,0.002321287989616394,-0.07136651128530502,-0.01727875880897045
1686353872302099500,9.493099365234375,-0.008220500312745571,0.09416051208972931,0.05279621109366417
1686353872322099500,9.513099365234375,0.0033859387040138245,-0.05375614017248154,-0.015620696358382702
1686353872342099500,9.533099365234374,0.01909390278160572,-0.1111774742603302,-0.02569124661386013
1686353872362099500,9.553099365234376,-0.0013264502631500363,0.07016223669052124,0.05953317880630493
1686353872382099500,9.573099365234375,0.004258603323251009,-0.056932639330625534,0.003281218931078911
1686353872402099500,9.593099365234375,-0.003508111694827676,0.0023561944253742695,0.008674286305904388
1686353872422099500,9.613099365234374,-0.01682497374713421,0.0385892279446125,-0.0031241392716765404
1686353872442099500,9.633099365234376,-0.014905111864209175,0.10293951630592346,0.0005061454721726477
1686353872462099500,9.653099365234375,-0.0033684854861348867,-0.1607273668050766,-0.08930850028991699
1686353872482099500,9.673099365234375,-0.022514747455716133,0.17064084112644196,0.053127821534872055
1686353872502099500,9.693099365234374,-0.0005585053586401045,-0.09864600747823715,-0.02436479553580284
1686353872522099500,9.713099365234376,0.006981316953897476,-0.037367500364780426,0.021938787773251534
1686353872542099500,9.733099365234375,-0.0021816615480929613,0.09396852552890778,0.06063273921608925
1686353872562099500,9.753099365234375,0.028553586453199387,-0.11910127103328705,-0.03707079216837883
1686353872582099500,9.773099365234375,0.017907077446579933,-0.008953538723289967,0.0023911010939627886
1686353872602099500,9.793099365234376,0.002914699725806713,0.13039354979991913,0.058573249727487564
1686353872622099500,9.813099365234375,0.030805060639977455,-0.17041394114494324,-0.046303585171699524
1686353872642099500,9.833099365234375,-0.00125663704238832,0.18022270500659943,0.07702138274908066
1686353872662099500,9.853099365234375,-0.00008726646046852693,-0.09871581941843033,-0.035011306405067444
1686353872682099500,9.873099365234374,0.005689773242920637,-0.04567526653409004,-0.019914206117391586
1686353872702099500,9.893099365234375,-0.010541788302361965,0.09670869261026382,0.03087487444281578
1686353872722099500,9.913099365234375,0.005044001620262861,-0.12379620224237442,-0.04281292483210564
1686353872742099500,9.933099365234375,0.007853982038795948,0.009023352526128292,0.02808234840631485
1686353872762099500,9.953099365234374,-0.0014486232539638877,0.09332275390625,0.05976007506251335
1686353872782099500,9.973099365234376,0.011623892933130264,-0.23869122564792633,-0.054908059537410736
1686353872802099500,9.993099365234375,-0.019076447933912277,0.254556268453598,0.11561060696840286
1686353872822099500,10.013099365234375,-0.004398229531943798,-0.002251474652439356,-0.009948376566171646
1686353872842099500,10.033099365234374,0.011588986031711102,-0.2116909772157669,-0.10960667580366135
1686353872862099500,10.053099365234376,-0.005078908056020737,0.1926843523979187,0.028797931969165802
1686353872882099500,10.073099365234375,0.003926991019397974,-0.15203562378883362,-0.0725882425904274
1686353872902099500,10.093099365234375,-0.005881759338080883,-0.015882495790719986,0.009354964829981327
1686353872922099500,10.113099365234374,-0.014782939106225967,0.1642180234193802,0.06860889494419098
1686353872942099500,10.133099365234376,0.011972958222031593,-0.2615550458431244,-0.10026916861534119
1686353872962099500,10.153099365234375,-0.01005309633910656,-0.012479104101657867,0.006492624990642071
1686353872982099500,10.173099365234375,-0.01984439417719841,0.18387043476104736,0.07452555745840073
1686353873002099500,10.193099365234374,0.005323254037648439,-0.0746128261089325,-0.04354596510529518
1686353873022099500,10.213099365234376,-0.012653636746108532,0.08244935423135757,-0.02525491453707218
1686353873042099500,10.233099365234375,-0.005969026125967503,-0.02843141369521618,-0.05585053563117981
1686353873062099500,10.253099365234375,0.00125663704238832,-0.034260813146829605,-0.026424285024404526
1686353873082099500,10.273099365234375,-0.004694935865700245,-0.019774580374360085,0.011554080061614513
1686353873102099500,10.293099365234376,-0.0007853981805965304,-0.04286528751254082,0.017592918127775192
1686353873122099500,10.313099365234375,-0.015917403623461723,-0.013648474588990211,0.03248057886958122
1686353873142099500,10.333099365234375,-0.03717551380395889,0.07597418129444122,0.029600784182548523
1686353873162099500,10.353099365234375,-0.023753931745886803,-0.05925392732024193,-0.053040556609630585
1686353873182099500,10.373099365234374,-0.037978366017341614,0.12807226181030273,-0.014643312431871891
1686353873202099500,10.393099365234375,-0.014887658879160881,-0.07089527696371078,-0.08292059600353241
1686353873222099500,10.413099365234375,-0.007592182140797377,-0.02419026382267475,-0.0368788056075573
1686353873242099500,10.433099365234375,-0.0030717793852090836,0.03728023171424866,0.026197392493486404
1686353873262099500,10.453099365234374,0.008587019518017769,-0.04009021446108818,0.00427605677396059
1686353873282099500,10.473099365234376,-0.005916666239500046,0.034836772829294205,0.006003932561725378
1686353873302099500,10.493099365234375,-0.018570303916931152,-0.0008726646192371845,-0.032096605747938156
1686353873322099500,10.513099365234375,-0.03481931984424591,0.0039618974551558495,-0.044628068804740906
1686353873342099500,10.533099365234374,-0.04482005536556244,0.07185520231723785,-0.04415683075785637
1686353873362099500,10.553099365234376,-0.040107667446136475,-0.054768431931734085,-0.08176867663860321
1686353873382099500,10.573099365234375,-0.03609341010451317,0.042359139770269394,-0.020525071769952774
1686353873402099500,10.593099365234375,-0.019076447933912277,0.0042236968874931335,-0.0036826448049396276
1686353873422099500,10.613099365234374,-0.00031415926059708,0.030944688245654106,0.02143264375627041
1686353873442099500,10.633099365234376,0.013194689527153969,-0.04248131439089775,-0.009110618382692337
1686353873462099500,10.653099365234375,0.0016929693520069122,0.03134611248970032,0.0063355453312397
1686353873482099500,10.673099365234375,-0.011623892933130264,0.011484266258776188,-0.023492131382226944
1686353873502099500,10.693099365234374,-0.02050761878490448,-0.021938787773251534,-0.03937462717294693
1686353873522099500,10.713099365234376,-0.041294489055871964,0.0907396674156189,0.00006981316983001307
1686353873542099500,10.733099365234375,-0.035098571330308914,0.003455751808360219,-0.043703045696020126
1686353873562099500,10.753099365234375,-0.018936822190880775,-0.00019198621157556772,-0.045378562062978745
1686353873582099500,10.773099365234375,-0.009564404375851154,0.003804817795753479,-0.04684463515877724
1686353873602099500,10.793099365234376,0.0042236968874931335,-0.11590731889009476,-0.06108652427792549
1686353873622099500,10.813099365234375,-0.013840461149811745,0.11641345918178558,0.04832816496491432
1686353873642099500,10.833099365234375,-0.0017278759041801095,-0.006562437862157822,0.011641345918178558
1686353873662099500,10.853099365234375,0.019984019920229912,-0.06801547855138779,-0.005078908056020737
1686353873682099500,10.873099365234374,0.0024958208668977022,0.10061822831630707,0.0475253164768219
1686353873702099500,10.893099365234375,0.01326450239866972,0.0014137167017906904,-0.018221236765384674
1686353873722099500,10.913099365234375,0.019338248297572136,-0.1863837093114853,-0.07656759768724442
1686353873742099500,10.933099365234375,-0.007923794910311699,0.046390850096940994,0.0337023064494133
1686353873762099500,10.953099365234374,-0.01096066739410162,0.014189526438713074,0.024661501869559288
1686353873782099500,10.973099365234376,-0.007382742594927549,-0.04557054489850998,-0.003577925032004714
1686353873802099500,10.993099365234375,-0.019634954631328583,0.07588691264390945,0.009791296906769276
1686353873822099500,11.013099365234375,-0.006928957067430019,0.07614871859550476,-0.02782054804265499
1686353873842099500,11.033099365234374,0.012740903533995152,-0.1042485162615776,-0.08487536013126373
1686353873862099500,11.053099365234376,0.008290314115583897,0.0455007329583168,0.02542944625020027
1686353873882099500,11.073099365234375,0.01665044017136097,0.03958406671881676,0.0639488622546196
1686353873902099500,11.093099365234375,0.0339815616607666,-0.19582593441009521,0.0017278759041801095
1686353873922099500,11.113099365234374,0.01673770695924759,0.036425020545721054,0.09613273292779922
1686353873942099500,11.133099365234376,0.011693705804646015,-0.0008203047327697277,0.054506633430719376
1686353873962099500,11.153099365234375,0.009861109778285027,-0.059498272836208344,-0.011658798903226852
1686353873982099500,11.173099365234375,-0.023404864594340324,0.13070771098136902,0.0017976891249418259
1686353874002099500,11.193099365234374,-0.007679448463022709,-0.036075957119464874,-0.09531243145465851
1686353874022099500,11.213099365234376,-0.0033335788175463676,-0.01944296807050705,-0.06440264731645584
1686353874042099500,11.233099365234375,0.005951572675257921,0.012897983193397522,0.005777040030807257
1686353874062097700,11.25309765625,0.027488935738801956,0.0302465558052063,0.06276203691959381
1686353874082099500,11.273099365234375,0.034662239253520966,-0.089884452521801,0.03511602431535721
1686353874102099500,11.293099365234376,0.02644173800945282,0.01993165910243988,0.07567747682332993
1686353874122099500,11.313099365234375,0.01401499379426241,-0.025656340643763542,0.0224623866379261
1686353874142099500,11.333099365234375,0.0010646508308127522,-0.02347467839717865,0.003281218931078911
1686353874162097700,11.35309765625,-0.012147491797804832,0.10400416702032089,0.015777776017785072
1686353874182099500,11.373099365234374,0.011588986031711102,-0.16612043976783752,-0.08689994364976883
1686353874202099500,11.393099365234375,0.0006457717972807586,0.1117534339427948,0.0409105159342289
1686353874222099500,11.413099365234375,0.01432915311306715,-0.013281955383718014,0.006457718089222908
1686353874242099500,11.433099365234375,0.027122415602207184,-0.07291985303163528,-0.0016231562476605177
1686353874262099500,11.453099365234374,0.0062831854447722435,0.05169665068387985,0.030176742002367973
1686353874282097700,11.47309765625,0.008709193207323551,-0.03090978041291237,-0.021066123619675636
1686353874302099500,11.493099365234375,0.008429939858615398,-0.05993460491299629,-0.027122415602207184
1686353874322099500,11.513099365234375,-0.0060388389974832535,0.06569419056177139,0.04468042775988579
1686353874342099500,11.533099365234374,-0.008499753661453724,0.0861145481467247,0.040770892053842545
1686353874362099500,11.553099365234376,0.0061610122211277485,-0.09985028952360153,-0.03834488242864609
1686353874382099500,11.573099365234375,0.006946410518139601,0.029775317758321762,0.02028072625398636
1686353874402099500,11.593099365234375,0.02670353837311268,-0.013613567687571049,0.02024581842124462
1686353874422099500,11.613099365234374,0.040055304765701294,-0.09883799403905869,0.00783652812242508
1686353874442099500,11.633099365234376,0.019250981509685516,0.01595230959355831,0.05967280641198158
1686353874462099500,11.653099365234375,0.007714355364441872,0.09435249865055084,0.055518921464681625
1686353874482099500,11.673099365234375,0.00094247778179124,-0.05770058557391167,-0.05391322076320648
1686353874502099500,11.693099365234374,-0.005689773242920637,-0.09848892688751221,-0.0742986649274826
1686353874522099500,11.713099365234376,-0.02427753061056137,0.08815658092498779,0.027838001027703285
1686353874542099500,11.733099365234375,-0.0013788101496174932,-0.08127998560667038,-0.007278022821992636
1686353874562099500,11.753099365234375,0.003298672381788492,0.02661627158522606,0.045553091913461685
1686353874582099500,11.773099365234375,0.01523672416806221,0.006422811653465033,0.026808258146047592
1686353874602097700,11.79309765625,0.03462733328342438,-0.012740903533995152,0.00996582955121994
1686353874622099500,11.813099365234375,0.03555235639214516,-0.04749041050672531,0.0021293016616255045
1686353874642099500,11.833099365234375,0.03364994749426842,-0.01171115878969431,0.042062435299158096
1686353874662097700,11.85309765625,0.02010619267821312,0.028379052877426147,0.05230751633644104
1686353874682099500,11.873099365234374,0.008115780539810658,-0.015358896926045418,0.017749998718500137
1686353874702099500,11.893099365234375,0.0044156829826533794,-0.08119271695613861,-0.01740093342959881
1686353874722099500,11.913099365234375,-0.016423547640442848,0.12264428287744522,0.04087560996413231
1686353874742097700,11.93309765625,-0.005619960371404886,-0.11643091589212418,-0.06468190252780914
1686353874762097700,11.95309765625,-0.00017453292093705386,-0.05482079088687897,-0.015358896926045418
1686353874782099500,11.973099365234376,-0.004014257341623306,0.09471901506185532,0.06281439960002899
1686353874802099500,11.993099365234375,0.01869247667491436,-0.09140289574861526,0.0025830871891230345
1686353874822097700,12.01309765625,0.013037609867751598,0.00251327408477664,0.02869321219623089
1686353874842099500,12.033099365234374,0.00427605677396059,0.07754497975111008,0.033283427357673645
1686353874862099500,12.053099365234376,0.01926843449473381,-0.16655677556991577,-0.06503096967935562
1686353874882099500,12.073099365234375,-0.00006981316983001307,-0.025830872356891632,0.012688543647527695
1686353874902099500,12.093099365234375,-0.015515976585447788,0.08148942142724991,0.060842178761959076
1686353874922099500,12.113099365234374,-0.0038746309000998735,-0.06237806752324104,-0.0030194194987416267
1686353874942099500,12.133099365234376,-0.0038746309000998735,0.010070549324154854,0.006318091880530119
1686353874962099500,12.153099365234375,0.0010122909443452954,0.0008203047327697277,0.0038222710136324167
1686353874982099500,12.173099365234375,0.0034208453726023436,-0.04447098821401596,-0.009407324716448784
1686353875002099500,12.193099365234374,0.00898844562470913,0.014974924735724926,0.01745329238474369
1686353875022099500,12.213099365234376,0.013665927574038506,-0.1175130158662796,-0.019914206117391586
1686353875042099500,12.233099365234375,0.005742133129388094,-0.020350538194179535,0.04571017250418663
1686353875062099500,12.253099365234375,-0.005916666239500046,0.07963937520980835,0.06302383542060852
1686353875082099500,12.273099365234375,0.008220500312745571,-0.1414065808057785,-0.03663446009159088
1686353875102099500,12.293099365234376,0.005742133129388094,-0.018535396084189415,0.016196655109524727
1686353875122099500,12.313099365234375,-0.00040142572834156454,0.045727625489234924,0.03867649659514427
1686353875142099500,12.333099365234375,0.007958701811730862,-0.15132004022598267,-0.026738444343209267
1686353875162099500,12.353099365234375,0.0046774824149906635,0.004502949304878712,0.04951499029994011
1686353875182099500,12.373099365234374,0.01616174913942814,-0.05925392732024193,0.02045525796711445
1686353875202099500,12.393099365234375,0.007976154796779156,0.008866272866725922,0.03577924892306328
1686353875222099500,12.413099365234375,-0.0019024088978767395,-0.01912880875170231,-0.00003490658491500653
1686353875242099500,12.433099365234375,-0.012915436178445816,0.04337143152952194,0.0021118484437465668
1686353875262099500,12.453099365234374,-0.00296705961227417,-0.05124286562204361,-0.03836233541369438
1686353875282099500,12.473099365234376,-0.00125663704238832,-0.056810468435287476,-0.0142593402415514
1686353875302099500,12.493099365234375,-0.0025307273026555777,0.04131194204092026,0.05276130139827728
1686353875322099500,12.513099365234375,0.01802925020456314,-0.07091272622346878,0.020385446026921272
1686353875342099500,12.533099365234374,0.02028072625398636,-0.05464625731110573,0.019216075539588928
1686353875362099500,12.553099365234376,0.018832102417945862,0.0015533430268988013,0.02197369560599327
1686353875382099500,12.573099365234375,0.014521139673888683,-0.013543754816055298,-0.003909537568688393
1686353875402099500,12.593099365234375,0.0239110104739666,-0.1212480217218399,-0.03537782281637192
1686353875422099500,12.613099365234374,-0.010279988870024681,0.08850564807653427,0.048171088099479675
1686353875442099500,12.633099365234376,0.001483529806137085,-0.037978366017341614,-0.013124875724315643
1686353875462099500,12.653099365234375,0.010332348756492138,-0.16292648017406464,-0.04328416660428047
1686353875482097700,12.67309765625,-0.01820378378033638,0.13964378833770752,0.07820820063352585
1686353875502099500,12.693099365234374,0.0025307273026555777,-0.01740093342959881,0.007888888008892536
1686353875522099500,12.713099365234376,0.022165682166814804,-0.11768755316734314,-0.04141666367650032
1686353875542099500,12.733099365234375,-0.0020769417751580477,0.11210250109434128,0.04415683075785637
1686353875562099500,12.753099365234375,0.017680184915661812,-0.16516050696372986,-0.042586032301187515
1686353875582099500,12.773099365234375,0.016528267413377762,-0.07897614687681198,0.028274333104491234
1686353875602099500,12.793099365234376,0.005829399451613426,0.020123645663261414,0.09902998059988022
1686353875622099500,12.813099365234375,0.029688050970435143,-0.04878195375204086,0.08346164226531982
1686353875642099500,12.833099365234375,0.02356194518506527,-0.038606684654951096,0.06099925562739372
1686353875662099500,12.853099365234375,0.013997540809214115,-0.00855211354792118,0.029251718893647194
1686353875682099500,12.873099365234374,0.006527531426399946,0.0527089424431324,-0.014940018765628338
1686353875702099500,12.893099365234375,0.007400196045637131,-0.04642575979232788,-0.09740682691335678
1686353875722099500,12.913099365234375,0.015009831637144089,-0.1662077009677887,-0.10639527440071106
1686353875742099500,12.933099365234375,0.009651671163737774,0.08415977656841278,0.038606684654951096
1686353875762099500,12.953099365234374,0.018901916220784187,-0.0771959125995636,0.01417207345366478
1686353875782099500,12.973099365234376,0.027262043207883835,-0.03609341010451317,0.03942698612809181
1686353875802099500,12.993099365234375,0.011554080061614513,0.049759335815906525,0.055204764008522034
1686353875822099500,13.013099365234375,0.014311700128018856,-0.10604620724916458,-0.01673770695924759
1686353875842099500,13.033099365234374,0.009093165397644043,-0.0031241392716765404,0.007435102481395006
1686353875862099500,13.053099365234376,0.012566370889544487,-0.06564183533191681,0.0012740903766825795
1686353875882099500,13.073099365234375,0.014154620468616486,-0.0224623866379261,0.036477379500865936
1686353875902099500,13.093099365234375,0.011327186599373817,0.008639379404485226,0.029269171878695488
1686353875922099500,13.113099365234374,0.006806783843785524,-0.03511602431535721,-0.0018675023457035422
1686353875942099500,13.133099365234376,0.0019024088978767395,-0.040282197296619415,-0.023003440350294113
1686353875962099500,13.153099365234375,0.005602506920695305,-0.06382668763399124,-0.02612757869064808
1686353875982099500,13.173099365234375,-0.00008726646046852693,-0.05318018049001694,0.002007128670811653
1686353876002099500,13.193099365234374,0.0028797932900488377,-0.03160791099071503,0.02525491453707218
1686353876022099500,13.213099365234376,0.014468779787421227,-0.033335790038108826,0.02525491453707218
1686353876042099500,13.233099365234375,0.016720253974199295,-0.07021459192037582,0.00331612559966743
1686353876062099500,13.253099365234375,0.016406094655394554,0.014189526438713074,0.02143264375627041
1686353876082099500,13.273099365234375,0.024661501869559288,-0.059812434017658234,-0.025167647749185562
1686353876102099500,13.293099365234376,0.020490165799856186,-0.02883283980190754,-0.005515240598469973
1686353876122099500,13.313099365234375,-0.0014660765882581472,0.043161991983652115,0.018395770341157913
1686353876142099500,13.333099365234375,0.008133234456181526,-0.14280283451080322,-0.044401176273822784
1686353876162099500,13.353099365234375,-0.017732545733451843,0.08241444826126099,0.041294489055871964
1686353876182099500,13.373099365234374,-0.007278022821992636,-0.024923302233219147,-0.01825614459812641
1686353876202099500,13.393099365234375,0.006126105785369873,-0.14480996131896973,-0.056234508752822876
1686353876222099500,13.413099365234375,-0.009669124148786068,0.0990997925400734,0.044977135956287384
1686353876242099500,13.433099365234375,0.014451325871050358,-0.08943066745996475,-0.013613567687571049
1686353876262099500,13.453099365234374,0.01855284906923771,-0.06352998316287994,0.01218239776790142
1686353876282099500,13.473099365234376,0.009878563694655895,0.01129228062927723,0.03516838327050209
1686353876302099500,13.493099365234375,0.022130774334073067,-0.1054004356265068,-0.021380282938480377
1686353876322099500,13.513099365234375,0.005358160939067602,0.0230383463203907,0.0045378562062978745
1686353876342099500,13.533099365234374,0.004433136433362961,-0.034348078072071075,-0.04483750835061073
1686353876362099500,13.553099365234376,0.012636183761060238,-0.08492772281169891,-0.06223843991756439
1686353876382099500,13.573099365234375,-0.013055062852799892,0.02373647689819336,-0.008866272866725922
1686353876402099500,13.593099365234375,-0.00930260494351387,-0.027314402163028717,-0.022270401939749718
1686353876422099500,13.613099365234374,0.0037000980228185654,-0.045954518020153046,-0.018709929659962654
1686353876442099500,13.633099365234376,-0.0046774824149906635,-0.017784904688596725,0.003176499158143997
1686353876462099500,13.653099365234375,-0.0008377580670639873,0.00938987173140049,0.01333431527018547
1686353876482099500,13.673099365234375,0.00930260494351387,-0.09901253134012222,-0.028379052877426147
1686353876502099500,13.693099365234374,0.010157816112041473,-0.022165682166814804,0.014381512999534607
1686353876522097700,13.71309765625,0.011990412138402462,-0.02028072625398636,0.014992378652095795
1686353876542099500,13.733099365234375,0.023352505639195442,-0.0677013248205185,-0.007888888008892536
1686353876562099500,13.753099365234375,0.015306537039577961,-0.021956242620944977,0.016667895019054413
1686353876582099500,13.773099365234375,0.013002702966332436,-0.011676252819597721,0.02316051907837391
1686353876602099500,13.793099365234376,0.016772614791989326,-0.02188642881810665,0.003630284918472171
1686353876622099500,13.813099365234375,0.008936085738241673,-0.0645073652267456,-0.02520255371928215
1686353876642099500,13.833099365234375,-0.001117010717280209,-0.022305307909846306,-0.009983283467590809
1686353876662099500,13.853099365234375,-0.008098327554762363,-0.012758356519043446,-0.016580628231167793
1686353876682099500,13.873099365234374,0.001343903481028974,-0.13344787061214447,-0.03595378249883652
1686353876702099500,13.893099365234375,-0.00015707963029854,0.04576253145933151,0.04878195375204086
1686353876722099500,13.913099365234375,0.005864306353032589,-0.02316051907837391,0.009285151958465576
1686353876742099500,13.933099365234375,0.01722639985382557,-0.09731955826282501,-0.024870941415429115
1686353876762099500,13.953099365234374,0.008726646192371845,-0.013194689527153969,0.017261305823922157
1686353876782099500,13.973099365234376,0.002949606394395232,-0.001343903481028974,0.022165682166814804
1686353876802099500,13.993099365234375,0.0016406094655394554,-0.09927432984113693,-0.03309144079685211
1686353876822099500,14.013099365234375,-0.008115780539810658,-0.023858651518821716,0.00019198621157556772
1686353876842099500,14.033099365234374,-0.006911503616720438,-0.016353735700249672,0.000715585018042475
1686353876862099500,14.053099365234376,0.004834562074393034,-0.10117673873901367,-0.025830872356891632
1686353876882099500,14.073099365234375,0.013473941944539547,-0.16470672190189362,-0.004747295752167702
1686353876902099500,14.093099365234375,0.003857177682220936,0.05965535342693329,0.09082693606615067
1686353876922099500,14.113099365234374,0.0038397242315113544,-0.06140068173408508,0.011309733614325523
1686353876942099500,14.133099365234376,0.016196655109524727,-0.054593898355960846,-0.02117084339261055
1686353876962099500,14.153099365234375,0.01855284906923771,-0.0020769417751580477,-0.00205948855727911
1686353876982099500,14.173099365234375,0.034400440752506256,-0.058660514652729034,-0.008726646192371845
1686353877002099500,14.193099365234374,0.042271874845027924,-0.16575391590595245,-0.006387905217707157
1686353877022099500,14.213099365234376,0.016493361443281174,0.0875806212425232,0.10988593101501465
1686353877042099500,14.233099365234375,0.0205948855727911,-0.04490732029080391,0.02883283980190754
1686353877062099500,14.253099365234375,0.025621432811021805,-0.17837265133857727,-0.049759335815906525
1686353877082099500,14.273099365234375,0.008133234456181526,0.023369958624243736,0.028937559574842453
1686353877102099500,14.293099365234376,0.014049900695681572,-0.06569419056177139,0.008796459063887596
1686353877122099500,14.313099365234375,0.023509584367275238,-0.03206169977784157,0.025307273492217064
1686353877142099500,14.333099365234375,0.029129544273018837,-0.11074113845825195,0.012164944782853127
1686353877162099500,14.353099365234375,0.020891591906547546,-0.031066861003637314,0.06581636518239975
1686353877182099500,14.373099365234374,0.022916173562407494,0.009669124148786068,0.05019566789269447
1686353877202099500,14.393099365234375,0.04270820692181587,-0.17011724412441254,-0.03544763848185539
1686353877222099500,14.413099365234375,0.02134537696838379,0.030351275578141212,0.047682393342256546
1686353877242099500,14.433099365234375,0.0216071754693985,-0.041573744267225266,0.002687806962057948
1686353877262099500,14.453099365234374,0.02431243658065796,-0.11093312501907349,-0.030944688245654106
1686353877282099500,14.473099365234376,0.008045967668294907,0.02200860157608986,0.042638394981622696
1686353877302099500,14.493099365234375,0.0279427208006382,-0.10393435508012772,0.013369222171604633
1686353877322099500,14.513099365234375,0.032882001250982285,-0.06726498901844025,0.041835542768239975
1686353877342099500,14.533099365234374,0.025883233174681664,-0.04012512043118477,0.05864306166768074
1686353877362099500,14.553099365234376,0.031381018459796906,-0.041172318160533905,0.033859387040138245
1686353877382099500,14.573099365234375,0.03228859230875969,-0.07581710070371628,-0.01860520988702774
1686353877402099500,14.593099365234375,0.015550883486866951,-0.06051056459546089,-0.015707964077591896
1686353877422099500,14.613099365234374,0.01731366664171219,-0.028361599892377853,0.0016231562476605177
1686353877442099500,14.633099365234376,0.019879300147294998,-0.06230825558304787,-0.0017278759041801095
1686353877462099500,14.653099365234375,0.018011797219514847,-0.035185836255550385,0.013386675156652927
1686353877482099500,14.673099365234375,0.022270401939749718,-0.036425020545721054,0.005235987715423107
1686353877502099500,14.693099365234374,0.035185836255550385,-0.0604931116104126,0.009791296906769276
1686353877522099500,14.713099365234376,0.050108402967453,-0.07885397225618362,0.03366740047931671
1686353877542099500,14.733099365234375,0.04846779257059097,-0.04038691893219948,0.07675957679748535
1686353877562099500,14.753099365234375,0.03989822790026665,-0.0423416867852211,0.0587477833032608
1686353877582099500,14.773099365234375,0.03871140256524086,-0.11948523670434952,0.003944444004446268
1686353877602099500,14.793099365234376,0.013962633907794952,0.02174680307507515,0.019058994948863983
1686353877622099500,14.813099365234375,0.01696459949016571,-0.044366270303726196,-0.03850196301937103
1686353877642099500,14.833099365234375,0.035150930285453796,-0.15170401334762573,-0.05110324174165726
1686353877662099500,14.853099365234375,0.02658136375248432,-0.05447172746062279,0.030630528926849365
1686353877682099500,14.873099365234374,0.025883233174681664,-0.05958554148674011,0.06141813471913338
1686353877702099500,14.893099365234375,0.03113667294383049,-0.04937536269426346,0.044575709849596024
1686353877722099500,14.913099365234375,0.02480112947523594,-0.05249950289726257,0.005044001620262861
1686353877742099500,14.933099365234375,0.019774580374360085,-0.06736970692873001,-0.015934856608510017
1686353877762099500,14.953099365234374,0.012705996632575989,-0.02197369560599327,-0.00031415926059708
1686353877782099500,14.973099365234376,0.009861109778285027,-0.03954916074872017,-0.0012915435945615172
1686353877802099500,14.993099365234375,0.015917403623461723,-0.05403539165854454,0.012409291230142117
1686353877822099500,15.013099365234375,0.01621410809457302,-0.00874409917742014,0.04424409568309784
1686353877842099500,15.033099365234374,0.023631757125258446,-0.09168214350938797,0.023090705275535583
1686353877862099500,15.053099365234376,0.023177972063422203,-0.03159045800566673,0.04756022244691849
1686353877882099500,15.073099365234375,0.018849555402994156,-0.02494075521826744,0.02972295694053173
1686353877902099500,15.093099365234375,0.018046705052256584,-0.009791296906769276,0.006928957067430019
1686353877922099500,15.113099365234374,0.013124875724315643,-0.04452335089445114,-0.03125884756445885
1686353877942099500,15.133099365234376,0.014433872886002064,-0.0754680335521698,-0.02410299703478813
1686353877962101000,15.15310107421875,0.007225662935525179,0.002199114765971899,0.029042279347777367
1686353877982099500,15.173099365234375,0.020472712814807892,-0.0846833735704422,0.013439035043120384
1686353878002099500,15.193099365234374,0.01780235767364502,-0.028780478984117508,0.05349434167146683
1686353878022099500,15.213099365234376,0.016859879717230797,0.05497787147760391,0.05927138030529022
1686353878042099500,15.233099365234375,0.03611086308956146,-0.14418165385723114,-0.03768165782094002
1686353878062099500,15.253099365234375,0.02010619267821312,0.011030481196939945,0.028640853241086006
1686353878082158600,15.27315869140625,0.019285887479782104,-0.05710717290639877,0.011501720175147057
1686353878102099500,15.293099365234376,0.020088739693164825,-0.02710496261715889,0.024748768657445908
1686353878122099500,15.313099365234375,0.012653636746108532,-0.08421213924884796,0.0041015236638486385
1686353878142099500,15.333099365234375,0.0066147977486252785,0.014311700128018856,0.05117305368185043
1686353878162099500,15.353099365234375,0.005864306353032589,-0.020717058330774307,0.008377579972147942
1686353878182099500,15.373099365234374,0.0038222710136324167,-0.03490658476948738,-0.005969026125967503
1686353878202101000,15.39310107421875,0.007225662935525179,-0.042359139770269394,0.0046774824149906635
1686353878222099500,15.413099365234375,0.025167647749185562,-0.05852089077234268,0.029286624863743782
1686353878242099500,15.433099365234375,0.010559242218732834,0.0253421813249588,0.06750933825969696
1686353878262099500,15.453099365234374,0.03330088034272194,-0.12777554988861084,0.006597344763576984
1686353878282099500,15.473099365234376,0.00970403105020523,-0.008779006078839302,0.0604931116104126
1686353878302099500,15.493099365234375,0.0042236968874931335,0.046530477702617645,0.05347688868641853
1686353878322099500,15.513099365234375,0.012583823874592781,-0.09939649701118469,-0.03296926990151405
1686353878342099500,15.533099365234374,0.004293509759008884,-0.036023594439029694,-0.011239920742809772
1686353878362099500,15.553099365234376,0.00012217304902151227,-0.03160791099071503,0.0010646508308127522
1686353878382099500,15.573099365234375,0.005166174378246069,-0.027296949177980423,0.008813912980258465
1686353878402099500,15.593099365234375,0.01630137488245964,-0.10871656239032745,-0.012810716405510902
1686353878422099500,15.613099365234374,0.014800392091274261,0.04633849114179611,0.05510004609823227
1686353878442099500,15.633099365234376,0.024556782096624374,-0.0017976891249418259,0.016894787549972534
1686353878462099500,15.653099365234375,0.04864232614636421,-0.10878637433052063,-0.023684117943048477
1686353878482099500,15.673099365234375,0.032271139323711395,0.005515240598469973,0.05373868718743324
1686353878502099500,15.693099365234374,0.028623400256037712,-0.01820378378033638,0.06173229590058327
1686353878522099500,15.713099365234376,0.03577924892306328,-0.1584235429763794,0.0012217304902151227
1686353878542099500,15.733099365234375,0.01219985168427229,0.03324852138757706,0.06805038452148438
1686353878562099500,15.753099365234375,0.006771877408027649,-0.008604473434388638,0.024556782096624374
1686353878582099500,15.773099365234375,0.022113321349024773,-0.15299555659294128,-0.046390850096940994
1686353878602099500,15.793099365234376,-0.004345869645476341,0.20155061781406403,0.060039326548576355
1686353878622099500,15.813099365234375,0.038117989897727966,-0.22572343051433563,-0.10094984620809555
1686353878642099500,15.833099365234375,0.021118484437465668,-0.10250318795442581,-0.026965336874127388
1686353878662099500,15.853099365234375,0.006108652334660292,0.017592918127775192,0.03885103017091751
1686353878682099500,15.873099365234374,0.018832102417945862,-0.06016149744391441,0.01607448235154152
1686353878702099500,15.893099365234375,0.022794000804424286,-0.07225663214921951,0.00708603672683239
1686353878722099500,15.913099365234375,0.016022123396396637,0.0746128261089325,0.04960225895047188
1686353878742099500,15.933099365234375,0.027035150676965714,-0.1503775715827942,-0.03752457723021507
1686353878762099500,15.953099365234374,0.021903881803154945,0.007365289609879255,0.04326671361923218
1686353878782099500,15.973099365234376,0.006195918656885624,-0.07122688740491867,0.03604104742407799
1686353878802099500,15.993099365234375,0.0018500490114092827,0.016318827867507935,0.08148942142724991
1686353878822099500,16.013099365234375,0.009616764262318611,-0.03724532574415207,0.019058994948863983
1686353878842099500,16.033099365234374,0.01333431527018547,-0.012618730776011944,-0.008499753661453724
1686353878862099500,16.053099365234374,0.0057246801443398,0.09712757170200348,-0.007819075137376785
1686353878882099500,16.073099365234373,0.03148574009537697,-0.18247416615486145,-0.1238660141825676
1686353878902099500,16.093099365234377,0.015149458311498165,-0.09859365224838257,-0.03392919898033142
1686353878922099500,16.113099365234376,0.0073129297234117985,0.08998917788267136,0.052953287959098816
1686353878942099500,16.133099365234376,0.04303981736302376,-0.2551671266555786,-0.0547335259616375
1686353878962101000,16.15310107421875,0.03574434295296669,-0.09231046587228775,0.01432915311306715
1686353878982099500,16.173099365234375,0.012932890094816685,0.17790141701698303,0.0780685767531395
1686353879002099500,16.193099365234374,0.021240657195448875,-0.15854570269584656,-0.0723089873790741
1686353879022099500,16.213099365234374,0.0006108652451075613,0.07866198569536209,-0.00724311638623476
1686353879042099500,16.233099365234374,-0.015201817266643047,0.11562806367874146,-0.0006981316837482154
1686353879062099500,16.253099365234377,0.017016960307955742,-0.19486601650714874,-0.0884358361363411
1686353879082099500,16.273099365234376,0.009180432185530663,-0.01186823844909668,0.012932890094816685
1686353879102099500,16.293099365234376,0.010978121310472488,0.07367035001516342,0.07189010828733444
1686353879122099500,16.313099365234375,0.03298672288656235,-0.1771334707736969,-0.02497566118836403
1686353879142099500,16.333099365234375,0.003752457909286022,0.1114741787314415,0.04361577704548836
1686353879162099500,16.353099365234375,0.0070685832761228085,-0.11648327112197876,-0.06464699655771255
1686353879182099500,16.373099365234374,0.00376991112716496,0.02679080329835415,-0.009738937020301819
1686353879202099500,16.393099365234374,-0.0023911010939627886,0.029530970379710197,0.005078908056020737
1686353879222099500,16.413099365234373,0.028204521164298058,-0.09499827027320862,-0.025359634310007095
1686353879242099500,16.433099365234376,0.03148574009537697,0.045605454593896866,0.04483750835061073
1686353879262099500,16.453099365234376,0.02759365551173687,-0.06171484291553497,-0.0034208453726023436
1686353879282099500,16.473099365234376,0.007557275705039501,0.02422516979277134,0.01226966455578804
1686353879302099500,16.493099365234375,-0.000715585018042475,0.0013264502631500363,-0.023108160123229027
1686353879322099500,16.513099365234375,-0.000715585018042475,0.02710496261715889,-0.02640683203935623
1686353879342099500,16.533099365234374,0.010821041651070118,-0.009616764262318611,-0.038065630942583084
1686353879362099500,16.553099365234374,0.02984512969851494,-0.05838126316666603,-0.02883283980190754
1686353879382099500,16.573099365234373,0.03769911080598831,0.050248030573129654,0.044313911348581314
1686353879402099500,16.593099365234377,0.0714363232254982,-0.13725268840789795,0.0006457717972807586
1686353879422099500,16.613099365234376,0.060929443687200546,0.0013089969288557768,0.07738789916038513
1686353879442099500,16.633099365234376,0.03263765573501587,0.05900958180427551,0.07476990669965744
1686353879462101000,16.65310107421875,0.019634954631328583,-0.0861319974064827,-0.010070549324154854
1686353879482099500,16.673099365234375,-0.0216071754693985,0.14355333149433136,0.023055799305438995
1686353879502099500,16.693099365234374,-0.024085544049739838,-0.012897983193397522,-0.06887069344520569
1686353879522099500,16.713099365234374,-0.014503685757517815,-0.04455825686454773,-0.07531096041202545
1686353879542099500,16.733099365234374,-0.015760323032736778,0.10791371017694473,0.008045967668294907
1686353879562099500,16.753099365234377,0.01754055917263031,-0.050073496997356415,-0.038065630942583084
1686353879582099500,16.773099365234376,0.03822271153330803,-0.06045820564031601,-0.023684117943048477
1686353879602099500,16.793099365234376,0.021502455696463585,0.054367005825042725,0.022218041121959686
1686353879622099500,16.813099365234375,0.035901423543691635,-0.1603957563638687,-0.037978366017341614
1686353879642099500,16.833099365234375,0.005096361506730318,0.07745771110057831,0.05815437063574791
1686353879662099500,16.853099365234375,0.0075747291557490826,-0.13213887810707092,-0.02090904489159584
1686353879682099500,16.873099365234374,-0.0037873645778745413,0.02427753061056137,0.05752605199813843
1686353879702099500,16.893099365234374,-0.02342231757938862,0.08695230633020401,0.05948081985116005
1686353879722099500,16.913099365234373,-0.005777040030807257,-0.042324233800172806,-0.02263692021369934
1686353879742099500,16.933099365234376,-0.00094247778179124,0.015428710728883743,-0.011658798903226852
1686353879762099500,16.953099365234376,-0.004747295752167702,0.06400122493505478,0.010751227848231792
1686353879782099500,16.973099365234376,0.020874137058854103,-0.1425410360097885,-0.027925267815589905
1686353879802099500,16.993099365234375,-0.005201081279665232,0.0858178362250328,0.08391542732715607
1686353879822099500,17.013099365234375,0.003926991019397974,-0.05710717290639877,0.023684117943048477
1686353879842099500,17.033099365234374,0.0050090947188436985,0.0005934119690209627,0.01696459949016571
1686353879862099500,17.053099365234374,0.015847589820623398,-0.06735225766897202,-0.009424777701497078
1686353879882099500,17.073099365234373,0.028466319665312767,-0.02241002768278122,0.030194196850061417
1686353879902099500,17.093099365234377,0.026633724570274353,0.03375466912984848,0.04468042775988579
1686353879922099500,17.113099365234376,0.039531707763671875,-0.05886995419859886,-0.0011868239380419254
1686353879942099500,17.133099365234376,0.020664697512984276,0.016528267413377762,0.014957471750676632
1686353879962101000,17.15310107421875,0.0016406094655394554,0.003857177682220936,-0.0034208453726023436
1686353879982099500,17.173099365234375,0.00031415926059708,0.027960173785686493,-0.001745329238474369
1686353880002099500,17.193099365234374,0.004852015525102615,-0.07304202765226364,-0.018762288615107536
1686353880022099500,17.213099365234374,0.005270894151180983,0.022916173562407494,0.053668875247240067
1686353880042099500,17.233099365234374,0.012740903533995152,0.04012512043118477,0.06719517707824707
1686353880062101000,17.25310107421875,0.022514747455716133,-0.12061970680952072,0.004502949304878712
1686353880082099500,17.273099365234376,0.018081611022353172,0.07091272622346878,0.0760439932346344
1686353880102099500,17.293099365234376,0.021554816514253616,0.06962118297815323,0.042586032301187515
1686353880122099500,17.313099365234375,0.03893829509615898,-0.22432716190814972,-0.08503244072198868
1686353880142099500,17.333099365234375,0.013299409300088882,0.1013687252998352,0.048694685101509094
1686353880162099500,17.353099365234375,0.009529497474431992,0.03778637945652008,0.032096605747938156
1686353880182099500,17.373099365234374,0.027785642072558403,-0.1724908947944641,-0.0342782661318779
1686353880202099500,17.393099365234374,0.002373647876083851,0.18479545414447784,0.08480554819107056
1686353880222099500,17.413099365234373,0.003543018363416195,-0.003054326167330146,-0.004817108623683453
1686353880242099500,17.433099365234376,0.02117084339261055,-0.16091935336589813,-0.06478662043809891
1686353880262099500,17.453099365234376,0.021554816514253616,0.04132939502596855,0.029129544273018837
1686353880282099500,17.473099365234376,0.026197392493486404,-0.008011061698198318,0.04756022244691849
1686353880302099500,17.493099365234375,0.044226642698049545,-0.07536331564188004,0.019163714721798897
1686353880322099500,17.513099365234375,0.03131120651960373,0.02768092229962349,0.050649452954530716
1686353880342099500,17.533099365234374,0.030630528926849365,0.03462733328342438,0.036861352622509
1686353880362101000,17.55310107421875,0.04427900165319443,-0.057473693042993546,-0.005515240598469973
1686353880382099500,17.573099365234373,0.02888519875705242,-0.029740409925580025,0.02679080329835415
1686353880402099500,17.593099365234377,0.010227628983557224,0.09007643908262253,0.07646287232637405
1686353880422099500,17.613099365234376,0.014608405530452728,-0.03391174599528313,0.010018189437687397
1686353880442099500,17.633099365234376,0.012252211570739746,-0.029426250606775284,0.0031590459402650595
1686353880462101000,17.65310107421875,0.018936822190880775,0.03441789373755455,0.02998475730419159
1686353880482099500,17.673099365234375,0.03070034086704254,-0.03862413763999939,0.001483529806137085
1686353880502101000,17.69310107421875,0.030176742002367973,-0.053389620035886765,0.0009773843921720982
1686353880522101000,17.71310107421875,0.016196655109524727,-0.002146754879504442,0.02457423508167267
1686353880542099500,17.733099365234374,0.018343409523367882,-0.024870941415429115,0.007609635591506958
1686353880562101000,17.75310107421875,0.021554816514253616,-0.05628686770796776,-0.016772614791989326
1686353880582099500,17.773099365234376,0.017872171476483345,-0.07609635591506958,0.005044001620262861
1686353880602099500,17.793099365234376,0.00518362782895565,0.09393361955881119,0.07358308136463165
1686353880622099500,17.813099365234375,0.004590216092765331,0.025010569021105766,0.00954695139080286
1686353880642099500,17.833099365234375,0.016912240535020828,-0.08450884371995926,-0.038327429443597794
1686353880662099500,17.853099365234375,0.0008552113431505859,0.13646729290485382,0.05092870816588402
1686353880682099500,17.873099365234374,0.009494591504335403,-0.01811651699244976,0.001658062799833715
1686353880702099500,17.893099365234374,0.026389379054307938,-0.10554005950689316,-0.006579891312867403
1686353880722099500,17.913099365234373,0.016772614791989326,0.04649557173252106,0.07672467082738876
1686353880742099500,17.933099365234376,0.020786872133612633,0.007173303049057722,0.049672070890665054
1686353880762099500,17.953099365234376,0.03162536770105362,-0.1601688712835312,-0.025080380961298943
1686353880782099500,17.973099365234376,0.010175269097089767,0.10346312075853348,0.06068509817123413
1686353880802099500,17.993099365234375,0.008831365965306759,0.006056292448192835,-0.012234757654368877
1686353880822099500,18.013099365234375,0.015097098425030708,-0.07712610065937042,-0.06457718461751938
1686353880842099500,18.033099365234374,0.009861109778285027,0.0423416867852211,-0.0003490658418741077
1686353880862099500,18.053099365234374,0.010594148188829422,0.07131415605545044,0.022026054561138153
1686353880882099500,18.073099365234373,0.023352505639195442,-0.1287354826927185,-0.050474923104047775
1686353880902101000,18.09310107421875,0.015254177153110504,0.04628613218665123,0.04948008432984352
1686353880922099500,18.113099365234376,0.018797196447849274,0.004345869645476341,0.0429176464676857
1686353880942099500,18.133099365234376,0.015289084054529667,-0.01864011585712433,0.016947146505117416
1686353880962099500,18.153099365234375,0.01326450239866972,-0.0068765971809625626,0.017662731930613518
1686353880982099500,18.173099365234375,0.003543018363416195,-0.017034413293004036,0.024958208203315735
1686353881002099500,18.193099365234374,-0.005602506920695305,0.07571238279342651,0.04256857931613922
1686353881022099500,18.213099365234374,0.010471975430846214,-0.0682772770524025,-0.04237659275531769
1686353881042099500,18.233099365234374,0.024172810837626457,-0.11917108297348022,-0.023509584367275238
1686353881062099500,18.253099365234377,0.008464846760034561,0.1290670931339264,0.09976302087306976
1686353881082099500,18.273099365234376,0.020141098648309708,-0.08428195118904114,0.0039618974551558495
1686353881102099500,18.293099365234376,0.020472712814807892,-0.05860815569758415,-0.003630284918472171
1686353881122099500,18.313099365234375,-0.0067369709722697735,0.13486158847808838,0.05373868718743324
1686353881142099500,18.333099365234375,0.013718287460505962,-0.07824310660362244,-0.05141739919781685
1686353881162099500,18.353099365234375,0.009738937020301819,-0.10951940715312958,-0.056531213223934174
1686353881182099500,18.373099365234374,-0.027646014466881752,0.3239680230617523,0.10646508634090424
1686353881202099500,18.393099365234374,0.02015855349600315,-0.1812000870704651,-0.077178455889225
1686353881222099500,18.413099365234373,0.03347541391849518,-0.09257226437330246,-0.02528982050716877
1686353881242099500,18.433099365234376,0.021153390407562256,0.13007938861846924,0.09320057928562164
1686353881262099500,18.453099365234376,0.0397411473095417,-0.11065387725830078,0.01797689124941826
1686353881282099500,18.473099365234376,0.03473205119371414,-0.0469493567943573,0.036861352622509
1686353881302099500,18.493099365234375,0.012793263420462608,0.08827875554561615,0.080075703561306
1686353881322099500,18.513099365234375,0.015376350842416286,-0.02701769582927227,0
1686353881342099500,18.533099365234374,0.023753931745886803,-0.1025380939245224,-0.04853760451078415
1686353881362099500,18.553099365234374,0.00022689280740451068,0.1281944364309311,0.056356679648160934
1686353881382099500,18.573099365234373,0.008203047327697277,0.03626793995499611,0.009424777701497078
1686353881402099500,18.593099365234377,0.03131120651960373,-0.1558055430650711,-0.055257122963666916
1686353881422099500,18.613099365234376,0.008517206646502018,0.17617353796958923,0.08744099736213684
1686353881442099500,18.633099365234376,0.01926843449473381,-0.03923500329256058,-0.00143117003608495
1686353881462101000,18.65310107421875,0.016318827867507935,-0.06372196972370148,-0.022881265729665756
1686353881482099500,18.673099365234375,-0.006894050631672144,0.04593706503510475,0.030682887881994247
1686353881502099500,18.693099365234374,0.004345869645476341,-0.05267403647303581,0.011466813273727894
1686353881522099500,18.713099365234374,0.002478367416188121,0.021380282938480377,0.0440695621073246
1686353881542099500,18.733099365234374,0.008848818950355053,0.027296949177980423,0.017662731930613518
1686353881562099500,18.753099365234377,0.030316369608044624,-0.08796459436416626,-0.04092797264456749
1686353881582099500,18.773099365234376,0.01785471849143505,0.06468190252780914,0.012583823874592781
1686353881602099500,18.793099365234376,0.01218239776790142,-0.04475024342536926,-0.030630528926849365
1686353881622099500,18.813099365234375,0.0055850534699857235,0.04105014353990555,0.006579891312867403
1686353881642101000,18.83310107421875,0.00251327408477664,-0.01424188632518053,-0.01754055917263031
1686353881662099500,18.853099365234375,0.0071907564997673035,-0.01740093342959881,0.0009599310578778386
1686353881682101000,18.87310107421875,0.0037350046914070845,0.011222466826438904,0.017208946868777275
1686353881702099500,18.893099365234374,0.014032446779310703,-0.013892821036279202,0.010873401537537575
1686353881722099500,18.913099365234373,0.013875367119908333,0.021729348227381706,0.022828906774520874
1686353881742099500,18.933099365234376,0.009930923581123352,0.09456194192171097,0.029600784182548523
1686353881762099500,18.953099365234376,0.021991148591041565,-0.08127998560667038,-0.039671335369348526
1686353881782099500,18.973099365234376,0.013753194361925125,0.010786134749650955,0.024033183231949806
1686353881802099500,18.993099365234375,0.0010646508308127522,0.07475244998931885,0.06174974888563156
1686353881822099500,19.013099365234375,0.027872908860445023,-0.20811305940151215,-0.03317870944738388
1686353881842099500,19.033099365234374,-0.0013264502631500363,0.1537984162569046,0.10273008048534393
1686353881862099500,19.053099365234374,0.005777040030807257,-0.009634217247366905,0.01722639985382557
1686353881882101000,19.07310107421875,0.024836035445332527,-0.14442598819732666,-0.06745697557926178
1686353881902099500,19.093099365234377,-0.0040317103266716,0.14292500913143158,0.027000242844223976
1686353881922099500,19.113099365234376,0.002827433403581381,-0.05780530348420143,-0.04057890549302101
1686353881942099500,19.133099365234376,0.006248278543353081,0.014957471750676632,-0.005078908056020737
1686353881962101000,19.15310107421875,-0.001029744278639555,0.07140141725540161,0.018675023689866066
1686353881982099500,19.173099365234375,0.02701769582927227,-0.05927138030529022,-0.02750638872385025
1686353882002099500,19.193099365234374,0.025237461552023888,0.030630528926849365,0.013892821036279202
1686353882022099500,19.213099365234374,0.019460421055555344,0.023945916444063187,0.019512781873345375
1686353882042099500,19.233099365234374,0.01864011585712433,-0.01740093342959881,0.007417649496346712
1686353882062099500,19.253099365234377,-0.0019547687843441963,0.01673770695924759,0.007504915818572044
1686353882082099500,19.273099365234376,-0.0013613568153232336,-0.01825614459812641,-0.0041015236638486385
1686353882102099500,19.293099365234376,-0.0026529005263000727,-0.023143066093325615,-0.002286381321027875
1686353882122099500,19.313099365234375,0.00205948855727911,-0.012775810435414314,0.004084070213139057
1686353882142099500,19.333099365234375,0.0010821041651070118,0.06112143024802208,0.010751227848231792
1686353882162099500,19.353099365234375,-0.0033335788175463676,0.10798352211713791,-0.020874137058854103
1686353882182101000,19.37310107421875,0.015044738538563251,-0.08836601674556732,-0.11316715180873871
1686353882202099500,19.393099365234374,0.0119555052369833,0.03759439289569855,-0.03220132365822792
1686353882222099500,19.413099365234373,0.0021642083302140236,0.021135937422513962,0.012130037881433964
1686353882242099500,19.433099365234376,0.018901916220784187,-0.04544837400317192,0.026720991358160973
1686353882262099500,19.453099365234376,0.011920598335564137,0.08805186301469803,0.07925540208816528
1686353882282099500,19.473099365234376,0.02183406800031662,0.009564404375851154,0.0293738916516304
1686353882302099500,19.493099365234375,0.02981022372841835,-0.04057890549302101,-0.020542524755001068
1686353882322099500,19.513099365234375,-0.0075747291557490826,0.1287878453731537,0.015446163713932037
1686353882342099500,19.533099365234374,-0.00027925267932005227,0.009354964829981327,-0.061138883233070374
1686353882362099500,19.553099365234374,0.023998277261853218,-0.1446179747581482,-0.10321877151727676
1686353882382099500,19.573099365234373,0.008220500312745571,0.043964844197034836,0.017924530431628227
1686353882402101000,19.59310107421875,0.022776545956730843,-0.0763406977057457,0.01794198527932167
1686353882422099500,19.613099365234376,0.011588986031711102,0.004869468510150909,0.05218534544110298
1686353882442099500,19.633099365234376,-0.015062191523611546,0.11760028451681137,0.04429645463824272
1686353882462101000,19.65310107421875,-0.010908307507634163,0.008482299745082855,-0.0553094856441021
1686353882482099500,19.673099365234375,-0.015009831637144089,0.0018151424592360854,-0.09487609565258026
1686353882502099500,19.693099365234374,-0.01891936920583248,-0.004625122528523207,-0.06293657422065735
1686353882522099500,19.713099365234374,-0.013281955383718014,0.024294983595609665,0.012705996632575989
1686353882542099500,19.733099365234374,0.006981316953897476,-0.07707373797893524,0.03977605327963829
1686353882562099500,19.753099365234377,0.013596114702522755,0.02139773592352867,0.09855873882770538
1686353882582099500,19.773099365234376,0.005515240598469973,0.12479104101657867,0.08318239450454712
1686353882602099500,19.793099365234376,0.004607669077813625,-0.047630034387111664,-0.056461401283741
1686353882622099500,19.813099365234375,-0.018343409523367882,0.018308503553271294,-0.09915215522050858
1686353882642099500,19.833099365234375,-0.03666936606168747,0.038990654051303864,-0.09915215522050858
1686353882662099500,19.853099365234375,-0.02839650772511959,-0.0362853966653347,-0.08506734669208527
1686353882682099500,19.873099365234374,-0.013823007233440876,0.0010821041651070118,-0.0216071754693985
1686353882702099500,19.893099365234374,0.005148721393197775,0.043301619589328766,0.031869713217020035
1686353882722099500,19.913099365234373,0.01624901592731476,-0.03330088034272194,-0.01333431527018547
1686353882742099500,19.933099365234376,0.007208209950476885,-0.012740903533995152,-0.02254965342581272
1686353882762099500,19.953099365234376,-0.009738937020301819,0.03874630853533745,-0.015707964077591896
1686353882782101000,19.97310107421875,-0.02258456125855446,0.033335790038108826,-0.03637266159057617
1686353882802099500,19.993099365234375,-0.01958259381353855,0.021764256060123444,-0.04673991724848747
1686353882822099500,20.013099365234375,-0.005166174378246069,-0.018797196447849274,-0.03375466912984848
1686353882842099500,20.033099365234374,-0.001117010717280209,0.04009021446108818,0.02298598550260067
1686353882862099500,20.053099365234374,0.004974188283085823,-0.03200933709740639,0.011431906372308731
1686353882882099500,20.073099365234373,-0.0016755161341279745,0.04237659275531769,0.035011306405067444
1686353882902099500,20.093099365234377,-0.003263765713199973,0.0013962633674964309,-0.00815068744122982
1686353882922099500,20.113099365234376,0.0010646508308127522,-0.06236061453819275,-0.04230678081512451
1686353882942099500,20.133099365234376,-0.007155850064009428,0.04239404574036598,0.0033684854861348867
1686353882962101000,20.15310107421875,0.005864306353032589,-0.03033382259309292,0.0017802357906475663
1686353882982099500,20.173099365234375,0.018011797219514847,-0.002373647876083851,0.034697145223617554
1686353883002099500,20.193099365234374,0.023230332881212234,0.03199188411235809,0.04459316283464432
1686353883022099500,20.213099365234374,0.034749504178762436,0.0027052604127675295,0.009477137587964535
1686353883042101000,20.23310107421875,0.03190461918711662,-0.035150930285453796,-0.029286624863743782
1686353883062099500,20.253099365234377,0.009826203808188438,0.09524261951446533,0.020385446026921272
1686353883082099500,20.273099365234376,0.02249729447066784,-0.05553637817502022,-0.03577924892306328
1686353883102099500,20.293099365234376,0.009424777701497078,0.005742133129388094,0.020228365436196327
1686353883122099500,20.313099365234375,0.01647590845823288,-0.025167647749185562,0.0483805276453495
1686353883142099500,20.333099365234375,0.02897246554493904,0.028326693922281265,0.07668976485729218
1686353883162099500,20.353099365234375,0.039671335369348526,-0.08452629297971725,0.005742133129388094
1686353883182099500,20.373099365234374,0.03654719516634941,-0.0014660765882581472,0.02151990868151188
1686353883202099500,20.393099365234374,0.0443488173186779,-0.03906046971678734,0.008691739290952682
1686353883222101000,20.41310107421875,0.04541346803307533,0.020490165799856186,0.04872959107160568
1686353883242099500,20.433099365234376,0.03885103017091751,0.016528267413377762,0.04242895543575287
1686353883262099500,20.453099365234376,0.029426250606775284,0.061191242188215256,0.045238934457302094
1686353883282099500,20.473099365234376,0.01616174913942814,-0.03689625859260559,-0.016842426732182503
1686353883302099500,20.493099365234375,0.009512044489383698,0.03389429301023483,0.010855947621166706
1686353883322099500,20.513099365234375,0.013613567687571049,0.0038222710136324167,0.007347836159169674
1686353883342099500,20.533099365234374,0.027454029768705368,-0.013037609867751598,0.017784904688596725
1686353883362101000,20.55310107421875,0.034784410148859024,-0.016720253974199295,0.04735078290104866
1686353883382099500,20.573099365234373,0.03380702808499336,-0.002460914198309183,0.063372902572155
1686353883402099500,20.593099365234377,0.03344050794839859,-0.023195425048470497,0.034522611647844315
1686353883422099500,20.613099365234376,0.024923302233219147,-0.012548916973173618,0.02457423508167267
1686353883442099500,20.633099365234376,0.019739674404263496,0.015044738538563251,0.019739674404263496
1686353883462099500,20.653099365234375,0.02024581842124462,0.011676252819597721,-0.009023352526128292
1686353883482099500,20.673099365234375,0.017296213656663895,-0.012479104101657867,-0.031817350536584854
1686353883502099500,20.693099365234374,0.021467549726366997,-0.04433136433362961,-0.015411256812512875
1686353883522099500,20.713099365234374,0.005689773242920637,0.08042477071285248,0.0570199079811573
1686353883542099500,20.733099365234374,0.021013764664530754,-0.042673300951719284,0.01160643994808197
1686353883562099500,20.753099365234377,0.023596851155161858,-0.023282691836357117,0.02258456125855446
1686353883582099500,20.773099365234376,0.008866272866725922,0.07944738864898682,0.05886995419859886
1686353883602099500,20.793099365234376,0.016859879717230797,0.04946263134479523,0.025411993265151978
1686353883622099500,20.813099365234375,0.03759439289569855,-0.14240141212940216,-0.038030724972486496
1686353883642099500,20.833099365234375,0.027000242844223976,0.033423054963350296,0.07007496803998947
1686353883662099500,20.853099365234375,0.02373647689819336,0.05564109608530998,0.09367182105779648
1686353883682099500,20.873099365234374,0.03256784379482269,-0.11150908470153809,0.021589722484350204
1686353883702099500,20.893099365234374,0.017156586050987244,0.03230604529380798,0.05523966997861862
1686353883722099500,20.913099365234373,0.008360126987099648,0.05778785049915314,0.027977628633379936
1686353883742099500,20.933099365234376,0.014713125303387642,-0.07417649030685425,-0.061854466795921326
1686353883762099500,20.953099365234376,0.004468042869120836,0.022689281031489372,-0.02776818908751011
1686353883782099500,20.973099365234376,0.0075747291557490826,0.02033308520913124,-0.004345869645476341
1686353883802099500,20.993099365234375,0.01966986060142517,-0.02370157092809677,0.0131772356107831
1686353883822099500,21.013099365234375,0.025656340643763542,0.006894050631672144,0.06209881603717804
1686353883842099500,21.033099365234374,0.02984512969851494,0.053441982716321945,0.0783478319644928
1686353883862099500,21.053099365234374,0.03087487444281578,0.04251622036099434,0.04530874639749527
1686353883882099500,21.073099365234373,0.03556980937719345,-0.07614871859550476,-0.03078760765492916
1686353883902099500,21.093099365234377,0.012897983193397522,0.023631757125258446,0.004886921960860491
1686353883922099500,21.113099365234376,0.009075712412595749,-0.01935570128262043,0.004380776546895504
1686353883942099500,21.133099365234376,0.024015730246901512,-0.06494370102882385,-0.006894050631672144
1686353883962099500,21.153099365234375,0.011571533046662807,0.10201449692249298,0.03981095924973488
1686353883982099500,21.173099365234375,0.02822197414934635,-0.029565878212451935,-0.052290063351392746
1686353884002099500,21.193099365234374,0.02759365551173687,0.00020943951676599681,-0.07597418129444122
1686353884022099500,21.213099365234374,0.012322024442255497,0.037402406334877014,-0.07075564563274384
1686353884042099500,21.233099365234374,0.013613567687571049,-0.005462880712002516,-0.07534586638212204
1686353884062099500,21.253099365234377,0.006562437862157822,-0.08155923336744308,-0.05288347601890564
1686353884082099500,21.273099365234376,0.0003665191470645368,0.053930673748254776,0.07216936349868774
1686353884102099500,21.293099365234376,0.01021017599850893,0.00874409917742014,0.08979719132184982
1686353884122099500,21.313099365234375,0.024818582460284233,0.03431317210197449,0.07686430215835571
1686353884142099500,21.333099365234375,0.036564648151397705,-0.01979203335940838,0.006981316953897476
1686353884162099500,21.353099365234375,0.0380132719874382,-0.030979594215750694,-0.030054569244384766
1686353884182099500,21.373099365234374,0.024120450019836426,0.0028972465079277754,-0.017121680080890656
1686353884202101000,21.39310107421875,0.020263273268938065,0.013281955383718014,0.0038222710136324167
1686353884222099500,21.413099365234373,0.027296949177980423,-0.06490879505872726,-0.007888888008892536
1686353884242101000,21.43310107421875,0.01473057921975851,0.025708699598908424,0.03710569813847542
1686353884262099500,21.453099365234376,0.0041015236638486385,0.0013089969288557768,0.013229595497250557
1686353884282099500,21.473099365234376,0.007941247895359993,-0.024242622777819633,-0.022270401939749718
1686353884302099500,21.493099365234375,-0.001343903481028974,0.047542769461870193,-0.01424188632518053
1686353884322099500,21.513099365234375,0.0020943949930369854,0.02485348843038082,-0.034173548221588135
1686353884342099500,21.533099365234374,0.024294983595609665,-0.11199777573347092,-0.06361725181341171
1686353884362099500,21.553099365234374,0.004468042869120836,0.10752973705530167,0.03937462717294693
1686353884382099500,21.573099365234373,0.007400196045637131,-0.019634954631328583,-0.002321287989616394
1686353884402099500,21.593099365234377,0.01005309633910656,-0.025621432811021805,-0.002321287989616394
1686353884422099500,21.613099365234376,-0.002827433403581381,-0.00143117003608495,0.028466319665312767
1686353884442099500,21.633099365234376,-0.004363323096185923,0.05677555873990059,0.049986228346824646
1686353884462101000,21.65310107421875,0.0020420351065695286,-0.0228987205773592,-0.014870204962790012
1686353884482099500,21.673099365234375,0.004694935865700245,-0.006806783843785524,-0.027314402163028717
1686353884502099500,21.693099365234374,0.011135200969874859,0.016720253974199295,-0.018657568842172623
1686353884522099500,21.713099365234374,0.0161268413066864,-0.05852089077234268,-0.029862582683563232
1686353884542099500,21.733099365234374,0.009267698042094707,-0.03260274976491928,0.02857103943824768
1686353884562099500,21.753099365234377,0.013543754816055298,0.05420992523431778,0.08552113175392151
1686353884582099500,21.773099365234376,0.026057764887809753,0.002460914198309183,0.04064871743321419
1686353884602099500,21.793099365234376,0.02670353837311268,-0.055972710251808167,-0.0028797932900488377
1686353884622099500,21.813099365234375,0.013648474588990211,0.06215117499232292,0.0337023064494133
1686353884642099500,21.833099365234375,0.011222466826438904,0.08290313929319382,0.00251327408477664
1686353884662099500,21.853099365234375,0.01776745170354843,-0.04384266957640648,-0.06621779501438141
1686353884682101000,21.87310107421875,0.007347836159169674,0.0205948855727911,-0.026319565251469612
1686353884702099500,21.893099365234374,0.01014036312699318,0.029251718893647194,-0.0030194194987416267
1686353884722101000,21.91310107421875,0.018884463235735893,-0.156102254986763,-0.045692719519138336
1686353884742099500,21.933099365234376,0.00874409917742014,0.1189441904425621,0.0849800780415535
1686353884762099500,21.953099365234376,0.006492624990642071,-0.017069319263100624,0.008936085738241673
1686353884782099500,21.973099365234376,0.014102260582149029,-0.01120501384139061,-0.03499384969472885
1686353884802099500,21.993099365234375,0.012409291230142117,0.049008846282958984,-0.021205751225352287
1686353884822101000,22.01310107421875,0.026249751448631287,0.02010619267821312,-0.03200933709740639
1686353884842099500,22.033099365234374,0.02782054804265499,0.012479104101657867,-0.03246312215924263
1686353884862099500,22.053099365234374,0.014643312431871891,-0.00008726646046852693,-0.018099064007401466
1686353884882099500,22.073099365234373,0.016371188685297966,0.03436553105711937,0.0014486232539638877
1686353884902099500,22.093099365234377,0.007347836159169674,-0.02200860157608986,-0.013788101263344288
1686353884922099500,22.113099365234376,0.0010646508308127522,0.03879866749048233,0.02754129469394684
1686353884942099500,22.133099365234376,-0.0007853981805965304,0.059323739260435104,0.017331119626760483
1686353884962101000,22.15310107421875,0.012583823874592781,-0.05696754530072212,-0.03995058685541153
1686353884982099500,22.173099365234375,0.006370451766997576,0.06223843991756439,-0.004485496319830418
1686353885002099500,22.193099365234374,0.024958208203315735,-0.05429719388484955,-0.05806710571050644
1686353885022099500,22.213099365234374,0.013823007233440876,0.053965579718351364,-0.008325220085680485
1686353885042099500,22.233099365234374,0.0036826448049396276,0.02045525796711445,-0.027227135375142097
1686353885062099500,22.253099365234377,0.007679448463022709,-0.04120722413063049,-0.04473278671503067
1686353885082099500,22.273099365234376,0.001745329238474369,0.05974261835217476,0.01492256484925747
1686353885102099500,22.293099365234376,0.003525565145537257,0.13254030048847198,0.021240657195448875
1686353885122099500,22.313099365234375,0.0200189258903265,-0.14309954643249512,-0.08667305111885071
1686353885142099500,22.333099365234375,-0.0012042771559208632,0.24190263450145721,0.04389503225684166
1686353885162099500,22.353099365234375,0.020891591906547546,-0.045151665806770325,-0.08559094369411469
1686353885182101000,22.37310107421875,0.033126350492239,-0.026057764887809753,-0.07110471278429031
1686353885202099500,22.393099365234374,0.02165953628718853,-0.011763518676161766,-0.011990412138402462
1686353885222099500,22.413099365234373,0.006126105785369873,-0.022444933652877808,0.04187044873833656
1686353885242099500,22.433099365234376,-0.012810716405510902,0.016807520762085915,0.07967428117990494
1686353885262099500,22.453099365234376,-0.030455995351076126,0.07984881103038788,0.06253514438867569
1686353885282099500,22.473099365234376,-0.009599311277270317,0.02165953628718853,-0.034121185541152954
1686353885302099500,22.493099365234375,-0.00045378561480902135,0.016196655109524727,-0.08457865566015244
1686353885322099500,22.513099365234375,-0.004468042869120836,0.005550147034227848,-0.09372418373823166
1686353885342101000,22.53310107421875,-0.008464846760034561,0.059725165367126465,-0.05668829381465912
1686353885362099500,22.553099365234374,0.00251327408477664,-0.07169812172651291,-0.07370525598526001
1686353885382099500,22.573099365234373,0.0028623400721699,-0.0959232971072197,-0.02157226949930191
1686353885402099500,22.593099365234377,-0.01811651699244976,0.13489650189876556,0.10164797306060791
1686353885422099500,22.613099365234376,-0.004886921960860491,-0.059864792972803116,0.019966566935181618
1686353885442099500,22.633099365234376,-0.006021386012434959,0.055257122963666916,0.034697145223617554
1686353885462101000,22.65310107421875,-0.01532399095594883,0.1642005741596222,0.01392772700637579
1686353885482099500,22.673099365234375,0.0011693706037476659,-0.1745852828025818,-0.1264491081237793
1686353885502099500,22.693099365234374,-0.01251401100307703,0.11512191593647003,-0.019303342327475548
1686353885522099500,22.713099365234374,-0.010314895771443844,-0.016510814428329468,-0.046006880700588226
1686353885542099500,22.733099365234374,0.005515240598469973,0.003543018363416195,-0.01045452244579792
1686353885562101000,22.75310107421875,-0.0042236968874931335,0.05665338784456253,0.02139773592352867
1686353885582101000,22.77310107421875,-0.0010821041651070118,0.0455007329583168,-0.0080634206533432
1686353885602099500,22.793099365234376,0.0011868239380419254,-0.05457644537091255,-0.06784094870090485
1686353885622099500,22.813099365234375,-0.01302015595138073,0.03717551380395889,-0.013491394929587841
1686353885642099500,22.833099365234375,-0.004450589418411255,-0.005515240598469973,-0.01014036312699318
1686353885662099500,22.853099365234375,0.000715585018042475,-0.04415683075785637,-0.0005235987482592463
1686353885682099500,22.873099365234374,-0.0034208453726023436,0.03794345632195473,0.038554321974515915
1686353885702101000,22.89310107421875,-0.005899212788790464,0.025272367522120476,0.017348572611808777
1686353885722099500,22.913099365234373,-0.005410520825535059,0.018675023689866066,-0.01869247667491436
1686353885742099500,22.933099365234376,-0.019216075539588928,0.04344124346971512,-0.040194932371377945
1686353885762099500,22.953099365234376,-0.01687733456492424,-0.026249751448631287,-0.07122688740491867
1686353885782101000,22.97310107421875,-0.009581857360899448,-0.07353071868419647,-0.06304129213094711
1686353885802101000,22.99310107421875,-0.01665044017136097,0.08204792439937592,0.01607448235154152
1686353885822099500,23.013099365234375,0.005044001620262861,-0.07595673203468323,-0.01935570128262043
1686353885842099500,23.033099365234374,0.003455751808360219,0.035726889967918396,0.03454006463289261
1686353885862099500,23.053099365234374,0.004398229531943798,0.04016002640128136,0.022130774334073067
1686353885882099500,23.073099365234373,0.017034413293004036,-0.02825688011944294,-0.02028072625398636
1686353885902099500,23.093099365234377,0.006143558770418167,0.047333329916000366,0.002600540639832616
1686353885922101000,23.11310107421875,0.017016960307955742,-0.02649409882724285,-0.025987952947616577
1686353885942099500,23.133099365234376,0.020315632224082947,-0.03593632951378822,-0.0013089969288557768
1686353885962101000,23.15310107421875,0.008813912980258465,0.013945180922746658,0.03384193405508995
1686353885982101000,23.17310107421875,0.027035150676965714,-0.03956661373376846,0.025900686159729958
1686353886002099500,23.193099365234374,0.003577925032004714,0.11126474291086197,0.06820746511220932
1686353886022099500,23.213099365234374,0.01392772700637579,-0.14241886138916016,-0.036791540682315826
1686353886042099500,23.233099365234374,0.010384708642959595,0.07089527696371078,0.0342782661318779
1686353886062099500,23.253099365234377,0.0024085543118417263,0.11274827271699905,0.022340213879942894
1686353886082099500,23.273099365234376,0.028815384954214096,-0.09201376140117645,-0.07714354991912842
1686353886102101000,23.29310107421875,0.03164282068610191,-0.028553586453199387,-0.04591961205005646
1686353886122099500,23.313099365234375,0.023020893335342407,0.06925466656684875,0.022043507546186447
1686353886142099500,23.333099365234375,0.055204764008522034,-0.20813050866127014,-0.009197885170578957
1686353886162099500,23.353099365234375,0.044139377772808075,0.11152654141187668,0.15887732803821564
1686353886182099500,23.373099365234374,0.04647811874747276,0.011466813273727894,0.12061970680952072
1686353886202099500,23.393099365234374,0.03508111834526062,-0.04654793068766594,0.0495324432849884
1686353886222099500,23.413099365234373,0.0028623400721699,0.043999750167131424,0.02321287989616394
1686353886242099500,23.433099365234376,0.004066617228090763,0.013316862285137177,-0.02802998758852482
1686353886262099500,23.453099365234376,0.006440265104174614,-0.04689699783921242,-0.06557202339172363
1686353886282099500,23.473099365234376,0.013456488028168678,0.029269171878695488,-0.0057072266936302185
1686353886302099500,23.493099365234375,0.01727875880897045,-0.01785471849143505,0.015306537039577961
1686353886322099500,23.513099365234375,0.009494591504335403,0.018832102417945862,0.03569198399782181
1686353886342099500,23.533099365234374,0.0051312679424881935,-0.04239404574036598,0.006126105785369873
1686353886362099500,23.553099365234374,-0.006597344763576984,0.06068509817123413,0.04478514939546585
1686353886382099500,23.573099365234373,0.007661995477974415,-0.05661848187446594,-0.006510077975690365
1686353886402099500,23.593099365234377,0.00938987173140049,-0.00823795422911644,0.023666664958000183
1686353886422099500,23.613099365234376,0.013945180922746658,0.04162610322237015,0.04398229718208313
1686353886442099500,23.633099365234376,0.028012534603476524,-0.04792674258351326,0.0159872155636549
1686353886462101000,23.65310107421875,0.004939281847327948,0.027436574921011925,0.03747221827507019
1686353886482099500,23.673099365234375,0.009267698042094707,-0.018325956538319588,0.0031415927223861217
1686353886502099500,23.693099365234374,0.005427973810583353,0.01242674421519041,-0.008534659631550312
1686353886522099500,23.713099365234374,0.003717551240697503,-0.018727382645010948,-0.018360864371061325
1686353886542099500,23.733099365234374,0.0044156829826533794,0.04475024342536926,0.01129228062927723
1686353886562099500,23.753099365234377,0.017016960307955742,-0.020437804982066154,-0.016510814428329468
