time,seconds_elapsed,z,y,x
1685718455825278700,0.13427880859375,9.62232494354248,1.809662103652954,0.055009178817272186
1685718455845278700,0.15427880859375,9.534036636352539,1.9679571390151978,-0.02362598292529583
1685718455865278700,0.17427880859375,9.5874662399292,1.9627186059951782,0.20951180160045624
1685718455885278700,0.19427880859375,9.802398681640625,2.052079916000366,0.3023972511291504
1685718455905278700,0.21427880859375,9.600968360900879,2.1520423889160156,0.18684349954128265
1685718455925278700,0.23427880859375,9.557049751281738,2.2599542140960693,0.277104914188385
1685718455945278700,0.25427880859375,9.644783020019531,2.1764442920684814,0.2032294124364853
1685718455965280500,0.274280517578125,9.755385398864746,2.1093204021453857,0.3115430772304535
1685718455985277200,0.294277099609375,9.794238090515137,2.0423402786254883,0.06187574937939644
1685718456005277200,0.314277099609375,9.698785781860352,2.046190023422241,-0.046054862439632416
1685718456025277200,0.334277099609375,9.657913208007812,1.9233100414276123,0.12764926254749298
1685718456045277200,0.354277099609375,9.693825721740723,1.861290693283081,0.2725750803947449
1685718456065286700,0.37428662109375,9.488393783569336,1.8722561597824097,0.12943054735660553
1685718456085277200,0.394277099609375,9.377436637878418,1.9368325471878052,-0.046744391322135925
1685718456105278700,0.41427880859375,9.41350269317627,1.8180993795394897,0.15243403613567352
1685718456125277200,0.434277099609375,9.73686408996582,1.7631763219833374,0.3376303017139435
1685718456145277200,0.454277099609375,9.665209770202637,1.8087619543075562,0.18533994257450104
1685718456165277200,0.474277099609375,9.50294017791748,1.894618034362793,0.08640195429325104
1685718456185277200,0.494277099609375,9.322389602661133,1.8531311750411987,0.2420729547739029
1685718456205277200,0.514277099609375,9.388487815856934,1.715819001197815,0.23556071519851685
1685718456225277200,0.534277099609375,9.518982887268066,1.6421732902526855,0.19140204787254333
1685718456245277200,0.554277099609375,10.190211296081543,1.6058485507965088,0.26208847761154175
1685718456265277200,0.574277099609375,10.20185661315918,1.585181713104248,0.15384182333946228
1685718456285277200,0.594277099609375,9.967693328857422,1.653426170349121,0.23706427216529846
1685718456305277200,0.614277099609375,9.477341651916504,1.7602553367614746,0.1891227811574936
1685718456325277200,0.634277099609375,9.232462882995605,1.7969058752059937,0.027246015146374702
1685718456345277200,0.654277099609375,9.650490760803223,1.8152645826339722,0.1214434877038002
1685718456365277200,0.674277099609375,10.352327346801758,2.2365291118621826,0.4645230174064636
1685718456385277200,0.694277099609375,9.793903350830078,1.8587433099746704,0.29889214038848877
1685718456405277200,0.714277099609375,9.63748550415039,1.9188663959503174,0.10941501706838608
1685718456425294600,0.734294677734375,9.607193946838379,1.8941774368286133,0.23105961084365845
1685718456445277200,0.754277099609375,9.706543922424316,1.8399630784988403,0.404083788394928
1685718456465277200,0.774277099609375,9.599666595458984,1.8499517440795898,0.2801886200904846
1685718456485277200,0.794277099609375,9.593863487243652,1.775884747505188,0.10704954713582993
1685718456505277200,0.814277099609375,9.604703903198242,1.7707611322402954,0.15894626080989838
1685718456525277200,0.834277099609375,9.494637489318848,1.6386011838912964,0.24706245958805084
1685718456545278700,0.85427880859375,9.660967826843262,1.6832482814788818,0.17728585004806519
1685718456565278700,0.87427880859375,9.811544418334961,1.6355844736099243,0.11130165308713913
1685718456585278700,0.89427880859375,9.99624252319336,1.486770510673523,0.16306428611278534
1685718456605278700,0.91427880859375,9.989758491516113,1.423994541168213,0.42372584342956543
1685718456625278700,0.93427880859375,9.678168296813965,1.4182580709457397,0.16048812866210938
1685718456645277200,0.954277099609375,9.467698097229004,1.5046120882034302,0.15242445468902588
1685718456665277200,0.974277099609375,9.381536483764648,1.419081687927246,0.14143986999988556
1685718456685277200,0.994277099609375,9.630159378051758,1.446155309677124,0.31649431586265564
1685718456705277200,1.014277099609375,9.676875114440918,1.4766383171081543,0.2688305377960205
1685718456725277200,1.034277099609375,9.711658477783203,1.5963387489318848,0.1451173573732376
1685718456745277200,1.054277099609375,9.578559875488281,1.672311544418335,0.1650179624557495
1685718456765277200,1.074277099609375,9.751172065734863,1.639032244682312,0.36144784092903137
1685718456785277200,1.094277099609375,9.683932304382324,1.6876344680786133,0.21224120259284973
1685718456805277200,1.114277099609375,9.86464786529541,1.7414848804473877,0.03823061287403107
1685718456825277200,1.134277099609375,9.771714210510254,1.746033787727356,0.310987651348114
1685718456845277200,1.154277099609375,9.715459823608398,1.7549498081207275,0.28309041261672974
1685718456865277200,1.174277099609375,9.46147346496582,1.8315930366516113,0.14654429256916046
1685718456885277200,1.194277099609375,9.479439735412598,1.8467531204223633,0.14815320074558258
1685718456905277200,1.214277099609375,9.685120582580566,1.78778874874115,0.09888052940368652
1685718456925277200,1.234277099609375,9.821819305419922,1.70270836353302,0.1422155797481537
1685718456945277200,1.254277099609375,9.800788879394531,1.6059443950653076,-0.020858285948634148
1685718456965278700,1.27427880859375,9.834527969360352,1.614716649055481,-0.1940452605485916
1685718456985278700,1.29427880859375,9.71205997467041,1.58234703540802,-0.23733243346214294
1685718457005277200,1.314277099609375,9.390259742736816,1.5069105625152588,0.09233956784009933
1685718457025277200,1.334277099609375,9.293218612670898,1.5112297534942627,-0.013369223102927208
1685718457045277200,1.354277099609375,9.600452423095703,1.6011463403701782,-0.24851813912391663
1685718457065277200,1.374277099609375,9.864446640014648,1.6073329448699951,-0.20572896301746368
1685718457085277200,1.394277099609375,9.72672176361084,1.7039821147918701,0.07668149471282959
1685718457105277200,1.414277099609375,9.76193618774414,1.7533314228057861,0.18726487457752228
1685718457125277200,1.434277099609375,9.880812644958496,1.8284039497375488,0.004319139756262302
1685718457145277200,1.454277099609375,9.688855171203613,1.8681572675704956,0.20203231275081635
1685718457165277200,1.474277099609375,9.568848609924316,1.8064922094345093,0.3679504990577698
1685718457185277200,1.494277099609375,9.62342643737793,1.7814584970474243,0.2577022910118103
1685718457205277200,1.514277099609375,9.513283729553223,1.7976911067962646,0.007929596118628979
1685718457225277200,1.534277099609375,9.498037338256836,1.7167670726776123,0.04641878232359886
1685718457245277200,1.554277099609375,9.566128730773926,1.657582402229309,0.28836721181869507
1685718457265277200,1.574277099609375,9.527783393859863,1.6903064250946045,0.23062866926193237
1685718457285277200,1.594277099609375,9.617488861083984,1.725031852722168,0.022601265460252762
1685718457305277200,1.614277099609375,9.505067825317383,1.8048354387283325,0.03474465385079384
1685718457325277200,1.634277099609375,9.569480895996094,1.7980645895004272,0.3084019124507904
1685718457345277200,1.654277099609375,9.602185249328613,1.7685585021972656,0.21958661079406738
1685718457365277200,1.674277099609375,9.752090454101562,1.8381626605987549,0.1587834656238556
1685718457385277200,1.694277099609375,9.729576110839844,1.8296489715576172,0.1880214512348175
1685718457405278700,1.71427880859375,9.402029991149902,1.8994734287261963,0.5270595550537109
1685718457425278700,1.73427880859375,9.898319244384766,1.8338723182678223,0.30185139179229736
1685718457445277200,1.754277099609375,9.808775901794434,1.7892922163009644,-0.04848737269639969
1685718457465277200,1.774277099609375,9.782172203063965,1.7847528457641602,0.007364564575254917
1685718457485277200,1.794277099609375,9.719932556152344,1.784130334854126,0.1342380940914154
1685718457505277200,1.814277099609375,9.875765800476074,1.8373104333877563,0.19254170358181
1685718457525277200,1.834277099609375,9.395029067993164,1.8388043642044067,-0.1336347609758377
1685718457545277200,1.854277099609375,9.168116569519043,1.782559871673584,-0.15525919198989868
1685718457565277200,1.874277099609375,9.330673217773438,1.6871556043624878,-0.1462186872959137
1685718457585277200,1.894277099609375,9.316471099853516,1.6941275596618652,-0.23968832194805145
1685718457605278700,1.91427880859375,9.525513648986816,1.8054100275039673,-0.28517815470695496
1685718457625278700,1.93427880859375,9.884835243225098,1.8755027055740356,-0.09310571104288101
1685718457645278700,1.95427880859375,9.980498313903809,1.6947308778762817,0.07016926258802414
1685718457665277200,1.974277099609375,9.999890327453613,1.8675252199172974,0.1958744376897812
1685718457685278700,1.99427880859375,9.659195899963379,2.013427972793579,0.03077985718846321
1685718457705277200,2.014277099609375,9.55201244354248,1.9318335056304932,0.16474980115890503
1685718457725277200,2.034277099609375,9.737869262695312,1.7213735580444336,0.39055174589157104
1685718457745277200,2.054277099609375,9.868200302124023,1.5738236904144287,0.30084580183029175
1685718457765277200,2.074277099609375,9.83482551574707,1.579636812210083,0.1926470547914505
1685718457785277200,2.094277099609375,9.453476905822754,1.5921825170516968,0.016740258783102036
1685718457805277200,2.114277099609375,9.332387924194336,1.566985845565796,0.14275187253952026
1685718457825277200,2.134277099609375,9.301118850708008,1.711844563484192,-0.05424303561449051
1685718457845277200,2.154277099609375,9.471864700317383,1.801464319229126,-0.35273292660713196
1685718457865277200,2.174277099609375,9.703163146972656,1.7587615251541138,-0.20316238701343536
1685718457885277200,2.194277099609375,9.88530445098877,1.4648109674453735,0.1757439821958542
1685718457905277200,2.214277099609375,9.872787475585938,1.502668023109436,0.18866309523582458
1685718457925277200,2.234277099609375,9.680906295776367,1.6972304582595825,0.00759440753608942
1685718457945277200,2.254277099609375,9.55245304107666,1.7724658250808716,0.10497137904167175
1685718457965277200,2.274277099609375,9.662672996520996,1.8126980066299438,0.3610839247703552
1685718457985277200,2.294277099609375,9.712050437927246,1.892472743988037,0.2880607545375824
1685718458005277200,2.314277099609375,9.810317993164062,1.9151794910430908,0.09157342463731766
1685718458025277200,2.334277099609375,9.783014297485352,1.778585433959961,0.08509950339794159
1685718458045277200,2.354277099609375,9.790637969970703,1.5930923223495483,0.272891104221344
1685718458065277200,2.374277099609375,9.51168441772461,1.5573228597640991,0.008753201924264431
1685718458085277200,2.394277099609375,9.403716087341309,1.6867917776107788,-0.15556564927101135
1685718458105277200,2.414277099609375,9.447279930114746,1.6697354316711426,-0.1324663907289505
1685718458125277200,2.434277099609375,9.767471313476562,1.586867332458496,0.1528266817331314
1685718458145277200,2.454277099609375,9.756190299987793,1.622253656387329,0.08565495908260345
1685718458165277200,2.474277099609375,9.614319801330566,1.6680115461349487,-0.09465716034173965
1685718458185277200,2.494277099609375,9.534611701965332,1.6790440082550049,0.006301539018750191
1685718458205277200,2.514277099609375,9.72116756439209,1.6138644218444824,0.23750481009483337
1685718458225277200,2.534277099609375,9.729374885559082,1.734532117843628,0.23395180702209473
1685718458245278700,2.55427880859375,9.673752784729004,1.8245636224746704,-0.012574347667396069
1685718458265277200,2.574277099609375,9.776702880859375,1.8353183269500732,0.0010821791365742683
1685718458285277200,2.594277099609375,10.037690162658691,1.7069892883300781,0.2503856122493744
1685718458305278700,2.61427880859375,9.895370483398438,1.7530632019042969,0.11724884808063507
1685718458325278700,2.63427880859375,9.622028350830078,1.7573440074920654,-0.14708060026168823
1685718458345277200,2.654277099609375,9.538346290588379,1.675194263458252,-0.22318749129772186
1685718458365278700,2.67427880859375,9.59245491027832,1.5912725925445557,0.07080133259296417
1685718458385277200,2.694277099609375,9.414345741271973,1.6675136089324951,-0.050910305231809616
1685718458405277200,2.714277099609375,9.223767280578613,1.7387267351150513,-0.23893174529075623
1685718458425277200,2.734277099609375,9.389552116394043,1.6425851583480835,-0.14651556313037872
1685718458445277200,2.754277099609375,9.813746452331543,1.5160468816757202,0.11123461276292801
1685718458465277200,2.774277099609375,9.99131965637207,1.5807573795318604,0.20066282153129578
1685718458485277200,2.794277099609375,9.82054615020752,1.6975752115249634,0.058973975479602814
1685718458505277200,2.814277099609375,9.666522026062012,1.8640966415405273,0.04461834207177162
1685718458525277200,2.834277099609375,9.691411972045898,1.8063198328018188,0.2279854565858841
1685718458545277200,2.854277099609375,9.77365779876709,1.785815954208374,0.2542833685874939
1685718458565277200,2.874277099609375,9.817730903625488,1.8054484128952026,0.185043066740036
1685718458585277200,2.894277099609375,9.71299934387207,1.7882962226867676,0.11168472468852997
1685718458605277200,2.914277099609375,9.693039894104004,1.6857573986053467,0.25838223099708557
1685718458625277200,2.934277099609375,9.494207382202148,1.6332956552505493,0.15602533519268036
1685718458645277200,2.954277099609375,9.404682159423828,1.6767743825912476,-0.004778826609253883
1685718458665277200,2.974277099609375,9.436171531677246,1.6698408126831055,-0.11425130814313889
1685718458685277200,2.994277099609375,9.666321754455566,1.5306323766708374,0.06419333815574646
1685718458705277200,3.014277099609375,9.633683204650879,1.565242886543274,0.09616071730852127
1685718458725277200,3.034277099609375,9.500164031982422,1.662562370300293,0.02092532441020012
1685718458745277200,3.054277099609375,9.685483932495117,1.71463143825531,0.009902418591082096
1685718458765277200,3.074277099609375,9.792207717895508,1.6587125062942505,0.25517401099205017
1685718458785277200,3.094277099609375,9.771570205688477,1.7198699712753296,0.2037944495677948
1685718458805277200,3.114277099609375,9.612289428710938,1.8833173513412476,0.07662402838468552
1685718458825277200,3.134277099609375,9.746737480163574,1.705600619316101,0.033537980169057846
1685718458845277200,3.154277099609375,9.947534561157227,1.7910064458847046,0.29169994592666626
1685718458865277200,3.174277099609375,9.74633502960205,1.7455261945724487,0.16768987476825714
1685718458885277200,3.194277099609375,9.467813491821289,1.7989840507507324,-0.1247762143611908
1685718458905277200,3.214277099609375,9.581297874450684,1.7611843347549438,-0.009739612229168415
1685718458925278700,3.23427880859375,9.606437683105469,1.585239291191101,-0.05329493060708046
1685718458945278700,3.25427880859375,9.642532348632812,1.564409613609314,-0.05776729807257652
1685718458965278700,3.27427880859375,9.72033405303955,1.425517201423645,-0.2037753015756607
1685718458985277200,3.294277099609375,9.541918754577637,1.4762072563171387,-0.11441411077976227
1685718459005277200,3.314277099609375,9.601879119873047,1.5656354427337646,0.016807297244668007
1685718459025277200,3.334277099609375,9.637552261352539,1.5683457851409912,0.026977865025401115
1685718459045277200,3.354277099609375,9.664156913757324,1.5982542037963867,-0.08354806154966354
1685718459065277200,3.374277099609375,9.763660430908203,1.6797528266906738,0.020954053848981857
1685718459085277200,3.394277099609375,9.85744571685791,1.7366101741790771,0.0786638930439949
1685718459105277200,3.414277099609375,9.737773895263672,1.754097580909729,0.18494729697704315
1685718459125277200,3.434277099609375,9.530406951904297,1.6897318363189697,0.17681658267974854
1685718459145277200,3.454277099609375,9.672029495239258,1.7052366733551025,0.02758120372891426
1685718459165277200,3.474277099609375,9.83420181274414,1.6421829462051392,0.17792749404907227
1685718459185336600,3.494336669921875,9.584861755371094,1.5863405466079712,0.10601525008678436
1685718459205277200,3.514277099609375,9.538643836975098,1.7184621095657349,0.06367618590593338
1685718459225277200,3.534277099609375,9.510248184204102,1.709641933441162,-0.06630980968475342
1685718459245277200,3.554277099609375,9.624795913696289,1.6538091897964478,0.0004501099174376577
1685718459265277200,3.574277099609375,9.720181465148926,1.634521484375,-0.001924938173033297
1685718459285277200,3.594277099609375,9.740187644958496,1.6748303174972534,-0.030597899109125137
1685718459305277200,3.614277099609375,9.87854290008545,1.6319069862365723,0.07802224904298782
1685718459325277200,3.634277099609375,9.653038024902344,1.6608768701553345,0.1388636976480484
1685718459345277200,3.654277099609375,9.460515975952148,1.6969527006149292,0.01079306099563837
1685718459365277200,3.674277099609375,9.418856620788574,1.7912938594818115,0.0380294993519783
1685718459385277200,3.694277099609375,9.667125701904297,1.7504487037658691,0.16876249015331268
1685718459405277200,3.714277099609375,9.735244750976562,1.692307949066162,0.10056604444980621
1685718459425277200,3.734277099609375,9.714052200317383,1.685383915901184,0.010160991922020912
1685718459445277200,3.754277099609375,9.78254508972168,1.6140367984771729,-0.01724782958626747
1685718459465277200,3.774277099609375,9.678847312927246,1.5333138704299927,-0.026431985199451447
1685718459485277200,3.794277099609375,9.856095314025879,1.364235281944275,0.030904356390237808
1685718459505277200,3.814277099609375,10.056556701660156,1.4320966005325317,-0.10923305153846741
1685718459525277200,3.834277099609375,9.678790092468262,1.6062794923782349,-0.38032373785972595
1685718459545277200,3.854277099609375,8.907119750976562,2.0144143104553223,-0.011070788837969303
1685718459565277200,3.874277099609375,8.640721321105957,2.1966514587402344,0.11122503876686096
1685718459585277200,3.894277099609375,9.388191223144531,2.199878692626953,0.3043413460254669
1685718459605277200,3.914277099609375,10.226344108581543,1.7839771509170532,0.3406182825565338
1685718459625277200,3.934277099609375,10.355917930603027,1.4639778137207031,0.186125248670578
1685718459645277200,3.954277099609375,10.10944938659668,1.2907238006591797,0.02229480631649494
1685718459665277200,3.974277099609375,9.838722229003906,1.2177101373672485,-0.16545850038528442
1685718459685277200,3.994277099609375,9.563283920288086,1.3016316890716553,-0.04140053689479828
1685718459705277200,4.014277099609375,9.516032218933105,1.4810723066329956,-0.12438356876373291
1685718459725277200,4.034277099609375,9.548852920532227,1.7919929027557373,-0.18044619262218475
1685718459745277200,4.054277099609375,9.719769477844238,1.857067346572876,-0.21799685060977936
1685718459765277200,4.074277099609375,9.619097709655762,1.9031413793563843,-0.05187756195664406
1685718459785277200,4.094277099609375,9.42293643951416,1.9738086462020874,-0.013359645381569862
1685718459805277200,4.114277099609375,9.335404396057129,1.9478362798690796,0.01798524335026741
1685718459825277200,4.134277099609375,9.509137153625488,1.6957556009292603,0.24998338520526886
1685718459845277200,4.154277099609375,9.842036247253418,1.598244547843933,0.24032996594905853
1685718459865277200,4.174277099609375,9.850224494934082,1.529205322265625,0.20244412124156952
1685718459885277200,4.194277099609375,9.773505210876465,1.5002354383468628,0.126404270529747
1685718459905277200,4.214277099609375,9.642129898071289,1.5009825229644775,0.1388636976480484
1685718459925277200,4.234277099609375,9.703977584838867,1.4984350204467773,-0.06684611737728119
1685718459945277200,4.254277099609375,9.758966445922852,1.5967888832092285,-0.13022541999816895
1685718459965278700,4.27427880859375,9.825775146484375,1.5880836248397827,-0.11239340156316757
1685718459985277200,4.294277099609375,9.711859703063965,1.664918303489685,0.04639005288481712
1685718460005277200,4.314277099609375,9.387655258178711,1.7386022806167603,-0.09119035303592682
1685718460025277200,4.334277099609375,9.388191223144531,1.8645468950271606,-0.07568550109863281
1685718460045277200,4.354277099609375,9.519767761230469,1.7744003534317017,0.09244491904973984
1685718460065277200,4.374277099609375,9.60969352722168,1.7637510299682617,0.20088310539722443
1685718460085277200,4.394277099609375,9.716876983642578,1.7377499341964722,0.1349659413099289
1685718460105277200,4.414277099609375,9.820460319519043,1.7499125003814697,0.08434294164180756
1685718460125277200,4.434277099609375,9.78669261932373,1.5940499305725098,0.23333889245986938
1685718460145277200,4.454277099609375,9.685723304748535,1.5883708000183105,0.09426451474428177
1685718460165277200,4.474277099609375,9.551648139953613,1.620127558708191,-0.026508601382374763
1685718460185277200,4.494277099609375,9.749984741210938,1.5529366731643677,-0.08641152828931808
1685718460205277200,4.514277099609375,9.78707504272461,1.53624427318573,0.06000826880335808
1685718460225277200,4.534277099609375,9.632237434387207,1.5932646989822388,-0.10522037744522095
1685718460245277200,4.554277099609375,9.510497093200684,1.7381712198257446,-0.09686940163373947
1685718460265277200,4.574277099609375,9.627314567565918,1.6895976066589355,-0.07758171111345291
1685718460285277200,4.594277099609375,9.678905487060547,1.708301305770874,0.10317093878984451
1685718460305277200,4.614277099609375,9.588997840881348,1.712687373161316,0.02089659310877323
1685718460325278700,4.63427880859375,9.588624954223633,1.821317195892334,-0.012536040507256985
1685718460345277200,4.654277099609375,9.707301139831543,1.671219825744629,0.04095042496919632
1685718460365277200,4.674277099609375,9.771791458129883,1.656730055809021,0.10844776034355164
1685718460385277200,4.694277099609375,9.645453453063965,1.61111581325531,0.038470033556222916
1685718460405277200,4.714277099609375,9.640942573547363,1.693265676498413,-0.06590758264064789
1685718460425277200,4.734277099609375,9.648527145385742,1.5971144437789917,0.023348255082964897
1685718460445277200,4.754277099609375,9.6389799118042,1.5919334888458252,-0.00419464148581028
1685718460465277200,4.774277099609375,9.6275634765625,1.570787787437439,-0.08003336936235428
1685718460485277200,4.794277099609375,9.766493797302246,1.752182126045227,-0.1214434877038002
1685718460505277200,4.814277099609375,9.630666732788086,1.6900861263275146,0.033260248601436615
1685718460525277200,4.834277099609375,9.59884262084961,1.692786693572998,0.08976341038942337
1685718460545277200,4.854277099609375,9.55845832824707,1.6575154066085815,0.06844543665647507
1685718460565277200,4.874277099609375,9.843262672424316,1.6935721635818481,0.04530787095427513
1685718460585277200,4.894277099609375,9.76908016204834,1.60161554813385,0.23776337504386902
1685718460605277200,4.914277099609375,9.521587371826172,1.6729148626327515,0.14460979402065277
1685718460625277200,4.934277099609375,9.457038879394531,1.7047100067138672,-0.018138471990823746
1685718460645277200,4.954277099609375,9.68066692352295,1.7495580911636353,-0.09263645112514496
1685718460665277200,4.974277099609375,9.701937675476074,1.6280475854873657,0.1085435226559639
1685718460685277200,4.994277099609375,9.668744087219238,1.6847805976867676,0.085310198366642
1685718460705277200,5.014277099609375,9.555670738220215,1.7115765810012817,-0.0046543278731405735
1685718460725277200,5.034277099609375,9.628837585449219,1.72285795211792,-0.02765781804919243
1685718460745277200,5.054277099609375,9.74738883972168,1.6340618133544922,0.13286861777305603
1685718460765277200,5.074277099609375,9.634756088256836,1.6996532678604126,-0.00007661445124540478
1685718460785277200,5.094277099609375,9.458992958068848,1.717571496963501,-0.023137565702199936
1685718460805277200,5.114277099609375,9.737563133239746,1.7258076667785645,0.04863102361559868
1685718460825278700,5.13427880859375,9.818382263183594,1.6311122179031372,0.16100527346134186
1685718460845277200,5.154277099609375,9.66584300994873,1.6509648561477661,0.13066595792770386
1685718460865277200,5.174277099609375,9.558793067932129,1.7199848890304565,0.017659632489085197
1685718460885277200,5.194277099609375,9.659961700439453,1.7232410907745361,-0.0684933215379715
1685718460905278700,5.21427880859375,9.749677658081055,1.612973690032959,0.09307698905467987
1685718460925278700,5.23427880859375,9.63334846496582,1.6427192687988281,-0.00209732074290514
1685718460945277200,5.254277099609375,9.57773494720459,1.7275696992874146,-0.06004657596349716
1685718460965277200,5.274277099609375,9.6622314453125,1.7104750871658325,-0.009126696735620499
1685718460985278700,5.29427880859375,9.682113647460938,1.6446058750152588,0.11621455103158951
1685718461005278700,5.31427880859375,9.636537551879883,1.7201669216156006,-0.011741165071725845
1685718461025277200,5.334277099609375,9.573416709899902,1.778164029121399,-0.007460332475602627
1685718461045277200,5.354277099609375,9.643356323242188,1.7111071348190308,0.0018195933662354946
1685718461065277200,5.374277099609375,9.797005653381348,1.6212480068206787,0.13869132101535797
1685718461085277200,5.394277099609375,9.707463264465332,1.6624761819839478,0.08836519718170166
1685718461105277200,5.414277099609375,9.639764785766602,1.75228750705719,-0.02689167484641075
1685718461125277200,5.434277099609375,9.683751106262207,1.7050163745880127,0.009950302541255951
1685718461145277200,5.454277099609375,9.670544624328613,1.6577068567276,0.17927782237529755
1685718461165277200,5.474277099609375,9.602510452270508,1.6785460710525513,-0.011808202601969242
1685718461185277200,5.494277099609375,9.716320991516113,1.74837064743042,-0.11171344667673111
1685718461205277200,5.514277099609375,9.75387191772461,1.6973739862442017,0.013848062604665756
1685718461225277200,5.534277099609375,9.585282325744629,1.6829609870910645,0.12514013051986694
1685718461245277200,5.554277099609375,9.474746704101562,1.6912353038787842,0.08854715526103973
1685718461265277200,5.574277099609375,9.596631050109863,1.7058207988739014,0.09662998467683792
1685718461285277200,5.594277099609375,9.906488418579102,1.6096984148025513,0.10649409145116806
1685718461305277200,5.614277099609375,9.826512336730957,1.603531002998352,0.2947070598602295
1685718461325278700,5.63427880859375,9.423299789428711,1.65202796459198,0.09096051007509232
1685718461345277200,5.654277099609375,9.48332691192627,1.8148910999298096,-0.06581181287765503
1685718461365277200,5.674277099609375,9.720947265625,1.7074105739593506,0.0036008793395012617
1685718461385278700,5.69427880859375,9.805912971496582,1.6808350086212158,0.11171344667673111
1685718461405277200,5.714277099609375,9.67880916595459,1.6627347469329834,-0.010955866426229477
1685718461425277200,5.734277099609375,9.655882835388184,1.7834217548370361,0.007517793215811253
1685718461445277200,5.754277099609375,9.524890899658203,1.703598976135254,0.0626801997423172
1685718461465277200,5.774277099609375,9.552423477172852,1.7193145751953125,0.13910311460494995
1685718461485277200,5.794277099609375,9.490912437438965,1.7120361328125,-0.027906814590096474
1685718461505277200,5.814277099609375,9.676644325256348,1.7926249504089355,-0.003275267779827118
1685718461525277200,5.834277099609375,9.768486022949219,1.6596510410308838,0.06486371904611588
1685718461545277200,5.854277099609375,9.759081840515137,1.6577836275100708,0.2025877684354782
1685718461565277200,5.874277099609375,9.524201393127441,1.6668049097061157,0.05348646640777588
1685718461585277200,5.894277099609375,9.624853134155273,1.77437162399292,-0.0659937709569931
1685718461605277200,5.914277099609375,9.698891639709473,1.6348183155059814,0.001283292076550424
1685718461625277200,5.934277099609375,9.758057594299316,1.6397504806518555,0.15668614208698273
1685718461645277200,5.954277099609375,9.546792984008789,1.6319166421890259,-0.03383485972881317
1685718461665277200,5.974277099609375,9.662528038024902,1.754652976989746,-0.03687070310115814
1685718461685277200,5.994277099609375,9.629096031188965,1.6449410915374756,0.05062299966812134
1685718461705277200,6.014277099609375,9.727622032165527,1.6428724527359009,0.1626620590686798
1685718461725277200,6.034277099609375,9.534754753112793,1.6739205121994019,0.018856734037399292
1685718461745277200,6.054277099609375,9.606792449951172,1.7571812868118286,-0.03445735201239586
1685718461765277200,6.074277099609375,9.66600513458252,1.6563565731048584,0.0663672685623169
1685718461785277200,6.094277099609375,9.772546768188477,1.6431981325149536,0.1981058269739151
1685718461805277200,6.114277099609375,9.531949043273926,1.6141324043273926,0.03855622559785843
1685718461825277200,6.134277099609375,9.641775131225586,1.7097856998443604,-0.025646688416600227
1685718461845277200,6.154277099609375,9.71009635925293,1.599671483039856,0.13998419046401978
1685718461865277200,6.174277099609375,9.729700088500977,1.6559640169143677,0.2001073807477951
1685718461885277200,6.194277099609375,9.435510635375977,1.6632039546966553,0.019211074337363243
1685718461905277200,6.214277099609375,9.631816864013672,1.7417434453964233,-0.04243483021855354
1685718461925277200,6.234277099609375,9.718486785888672,1.6066242456436157,0.15739482641220093
1685718461945277200,6.254277099609375,9.748117446899414,1.7428927421569824,0.17442238330841064
1685718461965277200,6.274277099609375,9.4324369430542,1.7105134725570679,-0.0158783458173275
1685718461985277200,6.294277099609375,9.617000579833984,1.71678626537323,0.05239471048116684
1685718462005278700,6.31427880859375,9.782564163208008,1.5784205198287964,0.14916835725307465
1685718462025277200,6.334277099609375,9.839306831359863,1.6274058818817139,0.1699308604001999
1685718462045277200,6.354277099609375,9.42827033996582,1.6450272798538208,0.0906253233551979
1685718462065277200,6.374277099609375,9.497529983520508,1.8053525686264038,-0.042310334742069244
1685718462085277200,6.394277099609375,9.648594856262207,1.6600149869918823,0.00938527099788189
1685718462105277200,6.414277099609375,9.743194580078125,1.652037501335144,0.09146808087825775
1685718462125277200,6.434277099609375,9.64135456085205,1.7142292261123657,-0.02576160989701748
1685718462145277200,6.454277099609375,9.709933280944824,1.7818127870559692,-0.06765056401491165
1685718462165277200,6.474277099609375,9.617363929748535,1.6623995304107666,0.098478302359581
1685718462185277200,6.494277099609375,9.604762077331543,1.7158286571502686,0.10069054365158081
1685718462205277200,6.514277099609375,9.46866512298584,1.6987340450286865,-0.012899958528578281
1685718462225277200,6.534277099609375,9.637802124023438,1.767572045326233,-0.045231256633996964
1685718462245277200,6.554277099609375,9.793903350830078,1.6253373622894287,0.10603440552949905
1685718462265277200,6.574277099609375,9.772662162780762,1.6641426086425781,0.16644489765167236
1685718462285277200,6.594277099609375,9.448688507080078,1.6968377828598022,0.04357447102665901
1685718462305277200,6.614277099609375,9.6275634765625,1.7646127939224243,-0.05705861747264862
1685718462325278700,6.63427880859375,9.789306640625,1.5912247896194458,0.08398859202861786
1685718462345277200,6.654277099609375,9.689046859741211,1.6422691345214844,0.11542925238609314
1685718462365277200,6.674277099609375,9.46163558959961,1.6887069940567017,-0.01907699927687645
1685718462385277200,6.694277099609375,9.63210391998291,1.7531877756118774,-0.05803544819355011
1685718462405277200,6.714277099609375,9.721809387207031,1.6125235557556152,0.15111243724822998
1685718462425277200,6.734277099609375,9.71730899810791,1.6787471771240234,0.12322477251291275
1685718462445277200,6.754277099609375,9.46496868133545,1.7128405570983887,-0.017621325328946114
1685718462465277200,6.774277099609375,9.56346607208252,1.7633966207504272,-0.007441178895533085
1685718462485277200,6.794277099609375,9.702292442321777,1.6198402643203735,0.13697706162929535
1685718462505277200,6.814277099609375,9.801727294921875,1.675012230873108,0.14505988359451294
1685718462525277200,6.834277099609375,9.537446022033691,1.7082246541976929,-0.004797980189323425
1685718462545277200,6.854277099609375,9.566962242126465,1.7724180221557617,-0.03884352743625641
1685718462565277200,6.874277099609375,9.77796745300293,1.6127533912658691,0.19126799702644348
1685718462585277200,6.894277099609375,9.71042251586914,1.6392619609832764,0.13784855604171753
1685718462605277200,6.914277099609375,9.539007186889648,1.7007546424865723,0.002940079662948847
1685718462625277200,6.934277099609375,9.590683937072754,1.7233176231384277,-0.08121132105588913
1685718462645277200,6.954277099609375,9.761725425720215,1.522932529449463,0.17915332317352295
1685718462665277200,6.974277099609375,9.737754821777344,1.6613365411758423,0.1290283203125
1685718462685277200,6.994277099609375,9.433126449584961,1.7171406745910645,-0.07639418542385101
1685718462705277200,7.014277099609375,9.505468368530273,1.666048288345337,-0.0025857379660010338
1685718462725277200,7.034277099609375,9.840704917907715,1.4785441160202026,0.23435403406620026
1685718462745277200,7.054277099609375,9.904764175415039,1.569169282913208,0.157576784491539
1685718462765278700,7.07427880859375,9.512469291687012,1.6217268705368042,0.015840038657188416
1685718462785277200,7.094277099609375,9.422006607055664,1.7210575342178345,-0.04229117929935455
1685718462805277200,7.114277099609375,9.63578987121582,1.6514054536819458,0.13554054498672485
1685718462825277200,7.134277099609375,9.6914701461792,1.657027006149292,0.06889554858207703
1685718462845277200,7.154277099609375,9.646381378173828,1.6792547702789307,-0.05467398837208748
1685718462865277200,7.174277099609375,9.81442642211914,1.7312090396881104,-0.05891651660203934
1685718462885277200,7.194277099609375,9.708765983581543,1.5716019868850708,0.17906713485717773
1685718462905277200,7.214277099609375,9.569748878479004,1.679465413093567,0.10991300642490387
1685718462925277200,7.234277099609375,9.440930366516113,1.6868491172790527,-0.07469909638166428
1685718462945277200,7.254277099609375,9.589773178100586,1.705954909324646,-0.0321110337972641
1685718462965277200,7.274277099609375,9.820535659790039,1.545639157295227,0.1739531308412552
1685718462985277200,7.294277099609375,9.8143310546875,1.627597451210022,0.1425699144601822
1685718463005277200,7.314277099609375,9.500096321105957,1.6417710781097412,0.03092350997030735
1685718463025277200,7.334277099609375,9.5740966796875,1.682913064956665,0.006167463958263397
1685718463045277200,7.354277099609375,9.755778312683105,1.5299235582351685,0.198958158493042
1685718463065277200,7.374277099609375,9.721779823303223,1.6099090576171875,0.1312597244977951
1685718463085277200,7.394277099609375,9.53048324584961,1.6534069776535034,-0.04303817078471184
1685718463105277200,7.414277099609375,9.650701522827148,1.7010515928268433,-0.02388455532491207
1685718463125277200,7.434277099609375,9.760307312011719,1.5452847480773926,0.2337602823972702
1685718463145277200,7.454277099609375,9.673044204711914,1.645774245262146,0.09506896138191223
1685718463165277200,7.474277099609375,9.449972152709961,1.6624187231063843,-0.04842991381883621
1685718463185277200,7.494277099609375,9.5968599319458,1.7090003490447998,-0.050412312150001526
1685718463205277200,7.514277099609375,9.801153182983398,1.5590466260910034,0.18551233410835266
1685718463225277200,7.534277099609375,9.728436470031738,1.631399393081665,0.09538499265909195
1685718463245277200,7.554277099609375,9.442856788635254,1.6802315711975098,-0.03847961127758026
1685718463265277200,7.574277099609375,9.56956672668457,1.7118159532546997,-0.04731900244951248
1685718463285277200,7.594277099609375,9.899994850158691,1.5435609817504883,0.22851219773292542
1685718463305277200,7.614277099609375,9.785600662231445,1.6337745189666748,0.13828909397125244
1685718463325277200,7.634277099609375,9.443353652954102,1.673690676689148,-0.03288675472140312
1685718463345277200,7.654277099609375,9.523760795593262,1.740910291671753,-0.029707254841923714
1685718463365277200,7.674277099609375,9.720793724060059,1.51824951171875,0.17898094654083252
1685718463385277200,7.694277099609375,9.828130722045898,1.58925199508667,0.0918319970369339
1685718463405277200,7.714277099609375,9.594754219055176,1.7122373580932617,-0.013273454271256924
1685718463425277200,7.734277099609375,9.506569862365723,1.7586369514465332,-0.06601293385028839
1685718463445277200,7.754277099609375,9.656237602233887,1.5420573949813843,0.2236950546503067
1685718463465277200,7.774277099609375,9.803853988647461,1.5891369581222534,0.14197616279125214
1685718463485277200,7.794277099609375,9.7236967086792,1.6289573907852173,-0.05511452630162239
1685718463505277200,7.814277099609375,9.616952896118164,1.6556288003921509,0.021863849833607674
1685718463525277200,7.834277099609375,9.589620590209961,1.5556659698486328,0.24297316372394562
1685718463545277200,7.854277099609375,9.586766242980957,1.673269271850586,0.09593086689710617
1685718463565277200,7.874277099609375,9.491535186767578,1.703235149383545,-0.1327345371246338
1685718463585277200,7.894277099609375,9.76805591583252,1.7331050634384155,-0.03019567020237446
1685718463605277200,7.914277099609375,9.878533363342285,1.5761125087738037,0.2891716957092285
1685718463625277200,7.934277099609375,9.641085624694824,1.6640084981918335,0.11178048700094223
1685718463645277200,7.954277099609375,9.405266761779785,1.7341394424438477,-0.0906253233551979
1685718463665277200,7.974277099609375,9.49009895324707,1.7292648553848267,-0.07564719021320343
1685718463685277200,7.994277099609375,9.762635231018066,1.578851580619812,0.23901794850826263
1685718463705277200,8.014277099609375,9.782172203063965,1.6679062843322754,0.1301296502351761
1685718463725277200,8.034277099609374,9.610804557800293,1.6888507604599,0.00859039556235075
1685718463745277200,8.054277099609376,9.58756160736084,1.7271387577056885,-0.00883939303457737
1685718463765277200,8.074277099609375,9.681462287902832,1.590880036354065,0.2655169665813446
1685718463785277200,8.094277099609375,9.612662315368652,1.6686627864837646,0.1479520946741104
1685718463805277200,8.114277099609374,9.442156791687012,1.682127833366394,-0.06205770745873451
1685718463825277200,8.134277099609376,9.63415241241455,1.6933326721191406,-0.03547249361872673
1685718463845277200,8.154277099609375,9.81796932220459,1.5566812753677368,0.2751799523830414
1685718463865277200,8.174277099609375,9.760595321655273,1.6863991022109985,0.18442055583000183
1685718463885277200,8.194277099609375,9.574297904968262,1.7405080795288086,-0.017717093229293823
1685718463905277200,8.214277099609374,9.660192489624023,1.7287285327911377,0.020647596567869186
1685718463925277200,8.234277099609375,9.835954666137695,1.5841091871261597,0.23975536227226257
1685718463945277200,8.254277099609375,9.744573593139648,1.6647841930389404,0.14853626489639282
1685718463965277200,8.274277099609375,9.487618446350098,1.683573842048645,-0.0451354905962944
1685718463985277200,8.294277099609374,9.591708183288574,1.707592487335205,-0.08106767386198044
1685718464005277200,8.314277099609376,9.780793190002441,1.5386289358139038,0.14321155846118927
1685718464025277200,8.334277099609375,9.724691390991211,1.5562694072723389,0.02647029235959053
1685718464045277200,8.354277099609375,9.496074676513672,1.6432076692581177,-0.14849796891212463
1685718464065277200,8.374277099609374,9.551763534545898,1.6571036577224731,-0.19687998294830322
1685718464085277200,8.394277099609376,9.676626205444336,1.536895513534546,0.04860229417681694
1685718464105277200,8.414277099609375,9.647176742553711,1.5860724449157715,0.006234501488506794
1685718464125277200,8.434277099609375,9.52884578704834,1.6056474447250366,-0.12479536980390549
1685718464145277200,8.454277099609374,9.743348121643066,1.7224078178405762,0.0019728222396224737
1685718464165277200,8.474277099609376,9.757225036621094,1.6053887605667114,0.17744866013526917
1685718464185277200,8.494277099609375,9.672958374023438,1.6698311567306519,0.2578267753124237
1685718464205277200,8.514277099609375,9.595654487609863,1.653473973274231,0.12799403071403503
1685718464225277200,8.534277099609374,9.865901947021484,1.6816680431365967,0.1210891455411911
1685718464245277200,8.554277099609376,9.911151885986328,1.5182687044143677,0.318783164024353
1685718464265277200,8.574277099609375,9.551074028015137,1.6124181747436523,0.2553080916404724
1685718464285277200,8.594277099609375,9.237692832946777,1.6814765930175781,-0.06396349519491196
1685718464305277200,8.614277099609374,9.492003440856934,1.707037091255188,-0.16901148855686188
1685718464325277200,8.634277099609376,9.863459587097168,1.5243594646453857,0.16262374818325043
1685718464345278700,8.65427880859375,9.739143371582031,1.5662484169006348,0.09694601595401764
1685718464365277200,8.674277099609375,9.49112319946289,1.6208266019821167,-0.05255751311779022
1685718464385277200,8.694277099609375,9.49640941619873,1.6916759014129639,-0.033116597682237625
1685718464405277200,8.714277099609374,9.73241138458252,1.5334765911102295,0.1515146642923355
1685718464425277200,8.734277099609375,9.731807708740234,1.632893443107605,0.15239572525024414
1685718464445277200,8.754277099609375,9.558428764343262,1.6884198188781738,-0.01663491316139698
1685718464465277200,8.774277099609375,9.752015113830566,1.722398281097412,0.05417599529027939
1685718464485277200,8.794277099609374,9.858038902282715,1.571266770362854,0.2971683144569397
1685718464505277200,8.814277099609376,9.6597900390625,1.6467797756195068,0.19971472024917603
1685718464525277200,8.834277099609375,9.463417053222656,1.6519513130187988,-0.06545747071504593
1685718464545277200,8.854277099609375,9.606878280639648,1.618030309677124,-0.11467268317937851
1685718464565277200,8.874277099609374,9.792121887207031,1.4613441228866577,0.15906119346618652
1685718464585277200,8.894277099609376,9.708468437194824,1.5118235349655151,0.00803494080901146
1685718464605277200,8.914277099609375,9.462947845458984,1.566526174545288,-0.12247778475284576
1685718464625277200,8.934277099609375,9.525379180908203,1.5915982723236084,-0.11135910451412201
1685718464645277200,8.954277099609374,9.795818328857422,1.5014517307281494,0.18926642835140228
1685718464665277200,8.974277099609376,9.77290153503418,1.6114989519119263,0.12672987580299377
1685718464685277200,8.994277099609375,9.548009872436523,1.6740449666976929,-0.017429787665605545
1685718464705277200,9.014277099609375,9.554176330566406,1.6983988285064697,-0.007603984791785479
1685718464725277200,9.034277099609374,9.776262283325195,1.5653865337371826,0.290857195854187
1685718464745277200,9.054277099609376,9.716781616210938,1.6443569660186768,0.14556746184825897
1685718464765277200,9.074277099609375,9.58183479309082,1.6596606969833374,-0.059586890041828156
1685718464785277200,9.094277099609375,9.651084899902344,1.6609630584716797,-0.056838348507881165
1685718464805277200,9.114277099609374,9.780169486999512,1.524857521057129,0.20728997886180878
1685718464825277200,9.134277099609376,9.661705017089844,1.6158850193023682,0.07018841803073883
1685718464845277200,9.154277099609375,9.527658462524414,1.6268696784973145,-0.09012732654809952
1685718464865277200,9.174277099609375,9.639286041259766,1.6195721626281738,-0.058610059320926666
1685718464885277200,9.194277099609375,9.8148193359375,1.5293394327163696,0.2463058978319168
1685718464905277200,9.214277099609374,9.608821868896484,1.6540007591247559,0.11692323535680771
1685718464925277200,9.234277099609375,9.414604187011719,1.613203525543213,0.01553358044475317
1685718464945277200,9.254277099609375,9.707022666931152,1.620079755783081,0.05336196720600128
1685718464965277200,9.274277099609375,9.971946716308594,1.4984064102172852,0.2790777385234833
1685718464985277200,9.294277099609374,9.768083572387695,1.578985571861267,0.23723666369915009
1685718465005277200,9.314277099609376,9.355008125305176,1.6470000743865967,-0.0023750481195747852
1685718465025277200,9.334277099609375,9.528520584106445,1.7380180358886719,-0.06364745646715164
1685718465045277200,9.354277099609375,9.780668258666992,1.5945861339569092,0.1079401895403862
1685718465065277200,9.374277099609374,9.703995704650879,1.6346173286437988,0.07028418779373169
1685718465085277200,9.394277099609376,9.592263221740723,1.6839282512664795,-0.08744582533836365
1685718465105277200,9.414277099609375,9.70578670501709,1.7097665071487427,-0.06166505813598633
1685718465125277200,9.434277099609375,9.763774871826172,1.5523428916931152,0.16628208756446838
1685718465145277200,9.454277099609374,9.61520004272461,1.6483312845230103,0.09203311055898666
1685718465165277200,9.474277099609376,9.400498390197754,1.6750409603118896,-0.08155608177185059
1685718465185277200,9.494277099609375,9.632370948791504,1.7044609785079956,-0.053639695048332214
1685718465205277200,9.514277099609375,9.912224769592285,1.5472289323806763,0.24379676580429077
1685718465225277200,9.534277099609374,9.78073501586914,1.6216981410980225,0.22545717656612396
1685718465245277200,9.554277099609376,9.388574600219727,1.673163890838623,-0.03424666076898575
1685718465265277200,9.574277099609375,9.503362655639648,1.6938881874084473,-0.07809886336326599
1685718465285277200,9.594277099609375,9.79289722442627,1.500925064086914,0.1732061356306076
1685718465305277200,9.614277099609374,9.775247573852539,1.5917227268218994,0.07592492550611496
1685718465325278700,9.63427880859375,9.536354064941406,1.6745716333389282,-0.10507672280073166
1685718465345277200,9.654277099609375,9.638069152832031,1.682357668876648,-0.06482540816068649
1685718465365277200,9.674277099609375,9.836702346801758,1.5105496644973755,0.21147504448890686
1685718465385278700,9.69427880859375,9.716876983642578,1.6231250762939453,0.14344140887260437
1685718465405277200,9.714277099609374,9.461808204650879,1.6812658309936523,-0.04817133769392967
1685718465425277200,9.734277099609375,9.542665481567383,1.7147846221923828,-0.014279019087553024
1685718465445277200,9.754277099609375,9.793731689453125,1.5533771514892578,0.26157131791114807
1685718465465277200,9.774277099609375,9.746392250061035,1.6300395727157593,0.18840453028678894
1685718465485277200,9.794277099609374,9.457518577575684,1.6878260374069214,-0.04472368583083153
1685718465505277200,9.814277099609376,9.574010848999023,1.7134439945220947,-0.0777253657579422
1685718465525277200,9.834277099609375,9.804763793945312,1.530593991279602,0.22767899930477142
1685718465545277200,9.854277099609375,9.761408805847168,1.5990777015686035,0.1018972247838974
1685718465565277200,9.874277099609374,9.467582702636719,1.67952299118042,-0.08488881587982178
1685718465585277200,9.894277099609376,9.540912628173828,1.6944339275360107,-0.13228443264961243
1685718465605277200,9.914277099609375,9.82441520690918,1.4890305995941162,0.20007863640785217
1685718465625277200,9.934277099609375,9.80725383758545,1.6175705194473267,0.11432792246341705
1685718465645277200,9.954277099609374,9.455564498901367,1.721718430519104,-0.08522401005029678
1685718465665277200,9.974277099609376,9.5188570022583,1.7005919218063354,-0.01248815655708313
1685718465685277200,9.994277099609375,9.793290138244629,1.4805647134780884,0.2912881374359131
1685718465705277200,10.014277099609375,9.89757251739502,1.5643330812454224,0.16180972754955292
1685718465725277200,10.034277099609374,9.499024391174316,1.6194475889205933,-0.007354987785220146
1685718465745277200,10.054277099609376,9.42347240447998,1.680317759513855,-0.05762364715337753
1685718465765277200,10.074277099609375,9.614356994628906,1.579933762550354,0.1499919444322586
1685718465785277200,10.094277099609375,9.77334213256836,1.620079755783081,0.07095456123352051
1685718465805277200,10.114277099609374,9.631671905517578,1.6569024324417114,-0.0778498575091362
1685718465825277200,10.134277099609376,9.775065422058105,1.729130744934082,-0.0831649899482727
1685718465845277200,10.154277099609375,9.823275566101074,1.5758634805679321,0.2089850753545761
1685718465865277200,10.174277099609375,9.619394302368164,1.6498348712921143,0.1396777331829071
1685718465885277200,10.194277099609375,9.362237930297852,1.7145739793777466,-0.07131848484277725
1685718465905277200,10.214277099609374,9.576509475708008,1.721124529838562,-0.04308605194091797
1685718465925277200,10.234277099609375,9.809953689575195,1.5652141571044922,0.2334250956773758
1685718465945278700,10.25427880859375,9.793596267700195,1.6143239736557007,0.17235378921031952
1685718465965277200,10.274277099609375,9.507719993591309,1.6470000743865967,-0.00005746084207203239
1685718465985277200,10.294277099609374,9.461798667907715,1.695123553276062,-0.06958507746458054
1685718466005277200,10.314277099609376,9.783493041992188,1.5487323999404907,0.18319472670555115
1685718466025277200,10.334277099609375,9.673053741455078,1.5862830877304077,0.09532754123210907
1685718466045277200,10.354277099609375,9.487981796264648,1.6905075311660767,-0.0454898327589035
1685718466065277200,10.374277099609374,9.610555648803711,1.7746111154556274,-0.01784159056842327
1685718466085277200,10.394277099609376,9.844900131225586,1.633678674697876,0.16458700597286224
1685718466105277200,10.414277099609375,9.938848495483398,1.7107529640197754,0.3351403474807739
1685718466125277200,10.434277099609375,9.631500244140625,1.6326923370361328,-0.04458003491163254
1685718466145277200,10.454277099609374,9.691728591918945,1.6872225999832153,-0.10468407720327377
1685718466165277200,10.474277099609376,9.637887954711914,1.5981870889663696,-0.022476764395833015
1685718466185277200,10.494277099609375,9.649772644042969,1.5872503519058228,0.1199207752943039
1685718466205277200,10.514277099609375,9.33523178100586,1.5473055839538574,-0.14468640089035034
1685718466225277200,10.534277099609374,9.55899429321289,1.6546136140823364,-0.09230126440525055
1685718466245277200,10.554277099609376,9.809082984924316,1.595773696899414,0.2367578148841858
1685718466265277200,10.574277099609375,9.834662437438965,1.633554220199585,0.14686989784240723
1685718466285277200,10.594277099609375,9.559309959411621,1.6008398532867432,-0.1606988161802292
1685718466305277200,10.614277099609374,9.606762886047363,1.7463881969451904,-0.0709928646683693
1685718466325277200,10.634277099609376,9.687936782836914,1.702842354774475,0.1986038237810135
1685718466345278700,10.65427880859375,9.632169723510742,1.6908140182495117,0.19438044726848602
1685718466365277200,10.674277099609375,9.506014823913574,1.7178205251693726,0.010946289636194706
1685718466385277200,10.694277099609375,9.718955039978027,1.8151401281356812,0.0020398597698658705
1685718466405277200,10.714277099609374,9.74650764465332,1.6494899988174438,0.23983196914196014
1685718466425277200,10.734277099609375,9.691421508789062,1.596616506576538,0.1458835005760193
1685718466445277200,10.754277099609375,9.60769271850586,1.6293596029281616,-0.033470939844846725
1685718466465277200,10.774277099609375,9.626740455627441,1.6451133489608765,-0.005573701579123735
1685718466485277200,10.794277099609374,9.625811576843262,1.5332372188568115,0.07353072613477707
1685718466505277200,10.814277099609376,9.702473640441895,1.6189591884613037,0.11976754665374756
1685718466525277200,10.834277099609375,9.529766082763672,1.6221578121185303,-0.13463075459003448
1685718466545277200,10.854277099609375,9.595309257507324,1.7166616916656494,-0.2028750777244568
1685718466565277200,10.874277099609374,9.77366828918457,1.5469127893447876,0.011415554210543633
1685718466585277200,10.894277099609376,9.726713180541992,1.663644552230835,0.18676689267158508
1685718466605277200,10.914277099609375,9.472783088684082,1.631811261177063,-0.07065768539905548
1685718466625277200,10.934277099609375,9.540538787841797,1.8045481443405151,0.018157625570893288
1685718466645277200,10.954277099609374,9.707990646362305,1.6111732721328735,0.14481090009212494
1685718466665277200,10.974277099609376,9.777661323547363,1.6676859855651855,0.2555187940597534
1685718466685277200,10.994277099609375,9.53823184967041,1.6096218824386597,0.030157363042235374
1685718466705277200,11.014277099609375,9.558035850524902,1.6937540769577026,-0.025196578353643417
1685718466725277200,11.034277099609374,9.705318450927734,1.5392417907714844,0.15315230190753937
1685718466745277200,11.054277099609376,9.787467956542969,1.5619388818740845,0.21382136642932892
1685718466765277200,11.074277099609375,9.537771224975586,1.5748484134674072,-0.08061756193637848
1685718466785277200,11.094277099609375,9.541468620300293,1.6369253396987915,-0.2695775330066681
1685718466805277200,11.114277099609374,9.676712036132812,1.5628199577331543,0.029544448480010033
1685718466825277200,11.134277099609376,9.666876792907715,1.6133376359939575,0.17383819818496704
1685718466845277200,11.154277099609375,9.465198516845703,1.649796485900879,-0.03757939115166664
1685718466865277200,11.174277099609375,9.694486618041992,1.7127257585525513,-0.08581776171922684
1685718466885277200,11.194277099609375,9.766878128051758,1.5939348936080933,0.1082945317029953
1685718466905277200,11.214277099609374,9.748384475708008,1.650763750076294,0.22999659180641174
1685718466925277200,11.234277099609375,9.503189086914062,1.6414358615875244,0.011109095998108387
1685718466945277200,11.254277099609375,9.536727905273438,1.6824438571929932,-0.07115567475557327
1685718466965277200,11.274277099609375,9.683751106262207,1.543283224105835,0.1477797031402588
1685718466985277200,11.294277099609374,9.794459342956543,1.595898151397705,0.23424868285655975
1685718467005277200,11.314277099609376,9.478385925292969,1.608396053314209,-0.04368939250707626
1685718467025278700,11.33427880859375,9.571932792663574,1.6905266046524048,-0.12800359725952148
1685718467045277200,11.354277099609375,9.689889907836914,1.5532909631729126,0.11104307323694229
1685718467065277200,11.374277099609374,9.754878044128418,1.5474779605865479,0.17622283101081848
1685718467085277200,11.394277099609376,9.616789817810059,1.569820523262024,0.01637633889913559
1685718467105277200,11.414277099609375,9.649312973022461,1.7123138904571533,-0.07341580092906952
1685718467125277200,11.434277099609375,9.570151329040527,1.5281710624694824,0.2229863703250885
1685718467145277200,11.454277099609374,9.64130687713623,1.5393855571746826,0.3021482527256012
1685718467165277200,11.474277099609376,9.585789680480957,1.5324997901916504,0.029611486941576004
1685718467185277200,11.494277099609375,9.683204650878906,1.602697730064392,-0.1127956286072731
1685718467205277200,11.514277099609375,9.794401168823242,1.4680094718933105,0.12412498891353607
1685718467225277200,11.534277099609374,9.66524887084961,1.5975358486175537,0.2798725962638855
1685718467245277200,11.554277099609376,9.4837007522583,1.5986754894256592,-0.08005252480506897
1685718467265277200,11.574277099609375,9.666321754455566,1.6963876485824585,-0.12317688763141632
1685718467285277200,11.594277099609375,9.788924217224121,1.5958025455474854,0.044206537306308746
1685718467305277200,11.614277099609374,9.8153076171875,1.6401430368423462,0.22555294632911682
1685718467325277200,11.634277099609376,9.515783309936523,1.6429394483566284,-0.02196919359266758
1685718467345277200,11.654277099609375,9.440183639526367,1.7337467670440674,-0.11134953051805496
1685718467365278700,11.67427880859375,9.534515380859375,1.5811116695404053,0.011252747848629951
1685718467385277200,11.694277099609375,9.666781425476074,1.5990394353866577,0.16264291107654572
1685718467405277200,11.714277099609374,9.6818265914917,1.60592520236969,-0.0005171475349925458
1685718467425277200,11.734277099609375,9.867721557617188,1.6462913751602173,-0.02211284637451172
1685718467445277200,11.754277099609375,9.799246788024902,1.464341640472412,0.153410866856575
1685718467465277200,11.774277099609375,9.661887168884277,1.5438004732131958,0.22006544470787048
1685718467485277200,11.794277099609374,9.337855339050293,1.5723872184753418,-0.025129541754722595
1685718467505277200,11.814277099609376,9.563600540161133,1.6570940017700195,-0.11531433463096619
1685718467525277200,11.834277099609375,9.768083572387695,1.5636051893234253,0.06182786449790001
1685718467545277200,11.854277099609375,9.76925277709961,1.6182504892349243,0.15281711518764496
1685718467565277200,11.874277099609374,9.549062728881836,1.6166129112243652,-0.003677493892610073
1685718467585277200,11.894277099609376,9.606274604797363,1.715158224105835,-0.10032662749290466
1685718467605277200,11.914277099609375,9.689899444580078,1.5916557312011719,0.1337784081697464
1685718467625277200,11.934277099609375,9.686681747436523,1.6577836275100708,0.184123694896698
1685718467645277200,11.954277099609374,9.468923568725586,1.6340330839157104,-0.024353818967938423
1685718467665277200,11.974277099609376,9.654071807861328,1.7277995347976685,-0.08255207538604736
1685718467685277200,11.994277099609375,9.71086311340332,1.5473438501358032,0.08787677437067032
1685718467705277200,12.014277099609375,9.8190336227417,1.572837233543396,0.15964536368846893
1685718467725277200,12.034277099609374,9.565956115722656,1.557859182357788,-0.005324704572558403
1685718467745277200,12.054277099609376,9.654350280761719,1.6767264604568481,-0.08234138786792755
1685718467765277200,12.074277099609375,9.745013236999512,1.544355869293213,0.09332598000764847
1685718467785277200,12.094277099609375,9.71451187133789,1.566746473312378,0.1620778739452362
1685718467805277200,12.114277099609374,9.445423126220703,1.591799259185791,-0.010840944945812225
1685718467825277200,12.134277099609376,9.550048828125,1.7419732809066772,-0.1249869093298912
1685718467845277200,12.154277099609375,9.681998252868652,1.5852009057998657,0.12863565981388092
1685718467865277200,12.174277099609375,9.714818000793457,1.5773670673370361,0.27929800748825073
1685718467885278700,12.19427880859375,9.570582389831543,1.5500348806381226,0.015524003654718399
1685718467905277200,12.214277099609374,9.704608917236328,1.6226654052734375,-0.0267767533659935
1685718467925277200,12.234277099609375,9.685139656066895,1.4964431524276733,0.19463902711868286
1685718467945277200,12.254277099609375,9.601083755493164,1.5882079601287842,0.17348386347293854
1685718467965277200,12.274277099609375,9.365283966064453,1.6414072513580322,-0.059395354241132736
1685718467985277200,12.294277099609374,9.549263954162598,1.7371177673339844,-0.09091262519359589
1685718468005277200,12.314277099609376,9.821867942810059,1.5793687105178833,0.05720226839184761
1685718468025277200,12.334277099609375,9.924971580505371,1.6121500730514526,0.2302360087633133
1685718468045277200,12.354277099609375,9.548038482666016,1.6526408195495605,-0.019632453098893166
1685718468065277200,12.374277099609374,9.550317764282227,1.7588955163955688,-0.12601162493228912
1685718468085277200,12.394277099609376,9.719615936279297,1.5948448181152344,0.11976754665374756
1685718468105277200,12.414277099609375,9.73965072631836,1.6223971843719482,0.20576727390289307
1685718468125277200,12.434277099609375,9.485540390014648,1.6261608600616455,-0.04784572497010231
1685718468145277200,12.454277099609374,9.606696128845215,1.703129768371582,-0.08250419050455093
1685718468165277200,12.474277099609376,9.555421829223633,1.5218695402145386,0.10851480066776276
1685718468185277200,12.494277099609375,9.621520042419434,1.572176456451416,0.16191506385803223
1685718468205277200,12.514277099609375,9.453601837158203,1.5525823831558228,-0.09469546377658844
1685718468225277200,12.534277099609374,9.608583450317383,1.6771478652954102,-0.1816815882921219
1685718468245277200,12.554277099609376,9.814895629882812,1.538063883781433,0.0688476637005806
1685718468265277200,12.574277099609375,9.930707931518555,1.5884474515914917,0.2163592278957367
1685718468285277200,12.594277099609375,9.532208442687988,1.6389268636703491,0.07619307935237885
1685718468305277200,12.614277099609374,9.545577049255371,1.7386788129806519,-0.04365108534693718
1685718468325277200,12.634277099609376,9.728225708007812,1.581983208656311,0.25613167881965637
1685718468345278700,12.65427880859375,9.803422927856445,1.6203477382659912,0.3200089931488037
1685718468365277200,12.674277099609375,9.512871742248535,1.6375956535339355,0.03575979545712471
1685718468385277200,12.694277099609375,9.452231407165527,1.7429405450820923,-0.06774633377790451
1685718468405277200,12.714277099609374,9.571175575256348,1.5581082105636597,0.07908527553081512
1685718468425277200,12.734277099609375,9.782353401184082,1.5961376428604126,0.12408668547868729
1685718468445277200,12.754277099609375,9.526671409606934,1.5277496576309204,-0.04617936164140701
1685718468465277200,12.774277099609375,9.581528663635254,1.6586933135986328,-0.10909898579120636
1685718468485277200,12.794277099609374,9.66333293914795,1.5399506092071533,0.06518932431936264
1685718468505277200,12.814277099609376,9.78276538848877,1.5713720321655273,0.18184441328048706
1685718468525277200,12.834277099609375,9.603277206420898,1.530469536781311,0.047548845410346985
1685718468545277200,12.854277099609375,9.701189994812012,1.7206840515136719,-0.0730997696518898
1685718468565277200,12.874277099609374,9.680054664611816,1.6398078203201294,0.1893334686756134
1685718468585277200,12.894277099609376,9.719022750854492,1.6465404033660889,0.2659958302974701
1685718468605277200,12.914277099609375,9.521855354309082,1.6048046350479126,0.032858025282621384
1685718468625277200,12.934277099609375,9.773456573486328,1.6837366819381714,-0.08443870395421982
1685718468645277200,12.954277099609374,9.749783515930176,1.5193794965744019,0.12588712573051453
1685718468665277200,12.974277099609376,9.5703706741333,1.601902961730957,0.11841721087694168
1685718468685277200,12.994277099609375,9.383001327514648,1.5927857160568237,-0.06868486106395721
1685718468705277200,13.014277099609375,9.536229133605957,1.6914843320846558,-0.17885644733905792
1685718468725277200,13.034277099609374,9.794133186340332,1.539605736732483,-0.03350924700498581
1685718468745277200,13.054277099609376,9.91281795501709,1.582873821258545,0.1959797739982605
1685718468765277200,13.074277099609375,9.51026725769043,1.5771373510360718,0.018962077796459198
1685718468785277200,13.094277099609375,9.5220947265625,1.723480463027954,-0.11000878363847733
1685718468805277200,13.114277099609374,9.633759498596191,1.5591520071029663,0.1093767061829567
1685718468825277200,13.134277099609376,9.777143478393555,1.632357120513916,0.32166579365730286
1685718468845277200,13.154277099609375,9.467209815979004,1.6391184329986572,0.03500322625041008
1685718468865277200,13.174277099609375,9.679373741149902,1.7356717586517334,-0.004146757069975138
1685718468885277200,13.194277099609375,9.741480827331543,1.556278944015503,0.16910725831985474
1685718468905277200,13.214277099609374,9.73850154876709,1.5834388732910156,0.2239057421684265
1685718468925277200,13.234277099609375,9.465868949890137,1.5457923412322998,0.0023750481195747852
1685718468945277200,13.254277099609375,9.494599342346191,1.6395493745803833,-0.1605551540851593
1685718468965277200,13.274277099609375,9.657012939453125,1.4962611198425293,0.004788403399288654
1685718468985277200,13.294277099609374,9.783493041992188,1.5185942649841309,0.20343053340911865
1685718469005277200,13.314277099609376,9.536785125732422,1.523784875869751,0.0017334020230919123
1685718469025277200,13.334277099609375,9.66748046875,1.6700801849365234,-0.09330683201551437
1685718469045277200,13.354277099609375,9.808412551879883,1.5686235427856445,0.14537593722343445
1685718469065277200,13.374277099609374,9.78685474395752,1.6196775436401367,0.2808781862258911
1685718469085277200,13.394277099609376,9.421384811401367,1.6049292087554932,0.011549629271030426
1685718469105277200,13.414277099609375,9.591401100158691,1.7085884809494019,-0.04935886338353157
1685718469125277200,13.434277099609375,9.610498428344727,1.5259970426559448,0.06779421120882034
1685718469145277200,13.454277099609374,9.719175338745117,1.5653003454208374,0.14589308202266693
1685718469165277200,13.474277099609376,9.48849868774414,1.515663743019104,-0.0068282634019851685
1685718469185277200,13.494277099609375,9.597003936767578,1.614601731300354,-0.11923124641180038
1685718469205277200,13.514277099609375,9.745664596557617,1.5141890048980713,0.007565677165985107
1685718469225277200,13.534277099609374,9.79153823852539,1.5356026887893677,0.12839625775814056
1685718469245277200,13.554277099609376,9.547281265258789,1.4990862607955933,0.010381259024143219
1685718469265277200,13.574277099609375,9.762337684631348,1.6531963348388672,-0.024708162993192673
1685718469285277200,13.594277099609375,9.708698272705078,1.5569876432418823,0.061789557337760925
1685718469305277200,13.614277099609374,9.69308853149414,1.5784493684768677,0.33516910672187805
1685718469325277200,13.634277099609376,9.440232276916504,1.514045238494873,0.15948255360126495
1685718469345278700,13.65427880859375,9.648796081542969,1.5998917818069458,-0.003859453136101365
1685718469365278700,13.67427880859375,9.801143646240234,1.4571877717971802,0.1568489372730255
1685718469385277200,13.694277099609375,9.758238792419434,1.503098964691162,0.22861753404140472
1685718469405277200,13.714277099609374,9.360438346862793,1.5543636083602905,0.017946936190128326
1685718469425277200,13.734277099609375,9.51124382019043,1.638246774673462,-0.18315643072128296
1685718469445277200,13.754277099609375,9.755558013916016,1.4888391494750977,-0.005688623525202274
1685718469465277200,13.774277099609375,9.95469856262207,1.5216971635818481,0.2235897034406662
1685718469485277200,13.794277099609374,9.571749687194824,1.5223004817962646,0.10857225954532623
1685718469505277200,13.814277099609376,9.466827392578125,1.679111123085022,-0.045346178114414215
1685718469525277200,13.834277099609375,9.56706714630127,1.51741623878479,0.10224198549985886
1685718469545277200,13.854277099609375,9.791796684265137,1.5498528480529785,0.2537662088871002
1685718469565277200,13.874277099609374,9.522812843322754,1.5557140111923218,0.049157749861478806
1685718469585277200,13.894277099609376,9.6565523147583,1.6318399906158447,-0.0665779560804367
1685718469605277200,13.914277099609375,9.6895170211792,1.4648492336273193,0.15892711281776428
1685718469625277200,13.934277099609375,9.781539916992188,1.5416169166564941,0.1754758358001709
1685718469645277200,13.954277099609374,9.58902645111084,1.5061156749725342,-0.029439104720950127
1685718469665277200,13.974277099609376,9.522180557250977,1.572712779045105,-0.13912226259708405
1685718469685277200,13.994277099609375,9.673234939575195,1.4480036497116089,0.028749573975801468
1685718469705277200,14.014277099609375,9.858373641967773,1.522041916847229,0.16315048933029175
1685718469725277200,14.034277099609374,9.566051483154297,1.5065945386886597,0.08032067865133286
1685718469745277200,14.054277099609376,9.536526679992676,1.619667887687683,-0.069182850420475
1685718469765277200,14.074277099609375,9.691268920898438,1.5055123567581177,0.12977531552314758
1685718469785277200,14.094277099609375,9.78908634185791,1.569772720336914,0.24754130840301514
1685718469805277200,14.114277099609374,9.526117324829102,1.5711039304733276,0.057001154869794846
1685718469825277200,14.134277099609376,9.579804420471191,1.6866767406463623,-0.0010151414899155498
1685718469845277200,14.154277099609375,9.642053604125977,1.5235358476638794,0.10868717730045319
1685718469865277200,14.174277099609375,9.831645965576172,1.575959324836731,0.20753899216651917
1685718469885277200,14.194277099609375,9.590607643127441,1.5428810119628906,0.07254431396722794
1685718469905277200,14.214277099609374,9.539783477783203,1.6359196901321411,0.0007852981798350811
1685718469925277200,14.234277099609375,9.651113510131836,1.5345683097839355,0.0960840955376625
1685718469945277200,14.254277099609375,9.773944854736328,1.547497034072876,0.1830798238515854
1685718469965277200,14.274277099609375,9.603009223937988,1.503635287284851,0.07599195837974548
1685718469985277200,14.294277099609374,9.626577377319336,1.6718710660934448,-0.041764453053474426
1685718470005277200,14.314277099609376,9.617517471313477,1.577233076095581,0.04228160157799721
1685718470025277200,14.334277099609375,9.707032203674316,1.5424692630767822,0.2590717673301697
1685718470045277200,14.354277099609375,9.59006118774414,1.5141409635543823,0.06265147030353546
1685718470065277200,14.374277099609374,9.77338981628418,1.6354312896728516,-0.09173622727394104
1685718470085277200,14.394277099609376,9.704120635986328,1.4946330785751343,0.05234682559967041
1685718470105277200,14.414277099609375,9.647713661193848,1.551232099533081,0.16683755815029144
1685718470125277200,14.434277099609375,9.525667190551758,1.5734598636627197,0.0006320692482404411
1685718470145277200,14.454277099609374,9.599408149719238,1.6684999465942383,-0.1870637685060501
1685718470165277200,14.474277099609376,9.689248085021973,1.5544497966766357,-0.10299855470657349
1685718470185277200,14.494277099609375,9.86023235321045,1.5714294910430908,0.12033258378505707
1685718470205277200,14.514277099609375,9.57299518585205,1.5659706592559814,0.01769793964922428
1685718470225277200,14.534277099609374,9.530186653137207,1.6857383251190186,-0.11075577139854431
1685718470245277200,14.554277099609376,9.662012100219727,1.5388875007629395,-0.0004405330982990563
1685718470265277200,14.574277099609375,9.783196449279785,1.598886251449585,0.1976078301668167
1685718470285277200,14.594277099609375,9.526480674743652,1.580527424812317,0.02542642131447792
1685718470305277200,14.614277099609374,9.663285255432129,1.6827598810195923,-0.014451401308178902
1685718470325277200,14.634277099609376,9.716264724731445,1.514945387840271,0.14175589382648468
1685718470345277200,14.654277099609375,9.739823341369629,1.5614025592803955,0.2544461786746979
1685718470365278700,14.67427880859375,9.471078872680664,1.5490580797195435,0.018856734037399292
1685718470385277200,14.694277099609375,9.549598693847656,1.650763750076294,-0.08102936297655106
1685718470405277200,14.714277099609374,9.672545433044434,1.5055123567581177,0.04424484819173813
1685718470425277200,14.734277099609375,9.810882568359375,1.5677040815353394,0.22506453096866608
1685718470445277200,14.754277099609375,9.61622428894043,1.5495368242263794,0.10476069152355194
1685718470465277200,14.774277099609375,9.572296142578125,1.6879887580871582,-0.011042057536542416
1685718470485277200,14.794277099609374,9.708564758300781,1.5767062902450562,0.11772768199443817
1685718470505277200,14.814277099609376,9.820747375488281,1.61111581325531,0.25565287470817566
1685718470525277200,14.834277099609375,9.669777870178223,1.6050728559494019,0.09166919440031052
1685718470545277200,14.854277099609375,9.591066360473633,1.6880367994308472,-0.04867890849709511
1685718470565277200,14.874277099609374,9.586804389953613,1.5294256210327148,0.07603985071182251
1685718470585277200,14.894277099609376,9.783598899841309,1.5575144290924072,0.14904384315013885
1685718470605277200,14.914277099609375,9.56733512878418,1.5327200889587402,-0.07059064507484436
1685718470625277200,14.934277099609375,9.598076820373535,1.593599796295166,-0.11960473656654358
1685718470645277200,14.954277099609374,9.587590217590332,1.4799901247024536,-0.05867709219455719
1685718470665277200,14.974277099609376,9.709991455078125,1.5349611043930054,0.0568670779466629
1685718470685277200,14.994277099609375,9.567440032958984,1.4908214807510376,-0.058830320835113525
1685718470705277200,15.014277099609375,9.597894668579102,1.6534547805786133,-0.10104489326477051
1685718470725277200,15.034277099609374,9.676377296447754,1.6089227199554443,0.009864110499620438
1685718470745277200,15.054277099609376,9.801958084106445,1.6092579364776611,0.24014800786972046
1685718470765277200,15.074277099609375,9.656686782836914,1.5737470388412476,0.10952993482351303
1685718470785277200,15.094277099609375,9.780476570129395,1.6868970394134521,0.015476119704544544
1685718470805277200,15.114277099609374,9.748863220214844,1.5574665069580078,0.17805199325084686
1685718470825277200,15.134277099609376,9.619030952453613,1.5975645780563354,0.2566775679588318
1685718470845277200,15.154277099609375,9.427284240722656,1.6192752122879028,0.025445574894547462
1685718470865277200,15.174277099609375,9.481172561645508,1.7152540683746338,-0.051954176276922226
1685718470885277200,15.194277099609375,9.634258270263672,1.5555607080459595,-0.02063801884651184
1685718470905277200,15.214277099609374,9.832345008850098,1.5939445495605469,0.17312951385974884
1685718470925277200,15.234277099609375,9.558734893798828,1.5401324033737183,0.04347870126366615
1685718470945278700,15.25427880859375,9.553746223449707,1.677176594734192,-0.06715257465839386
1685718470965278700,15.27427880859375,9.794602394104004,1.556777000427246,0.06952761858701706
1685718470985277200,15.294277099609374,9.889078140258789,1.5921058654785156,0.22120508551597595
1685718471005277200,15.314277099609376,9.59253215789795,1.6076489686965942,0.00442448491230607
1685718471025277200,15.334277099609375,9.725563049316406,1.7326550483703613,-0.0592421256005764
1685718471045277200,15.354277099609375,9.687074661254883,1.577357530593872,0.09156385064125061
1685718471065277200,15.374277099609374,9.69151782989502,1.590583086013794,0.15349705517292023
1685718471085277200,15.394277099609376,9.516165733337402,1.5646395683288574,-0.1161283552646637
1685718471105277200,15.414277099609375,9.427840232849121,1.6399515867233276,-0.2391137033700943
1685718471125277200,15.434277099609375,9.552108764648438,1.5115840435028076,-0.09967540949583054
1685718471145277200,15.454277099609374,9.745569229125977,1.533716082572937,0.10417650640010834
1685718471165277200,15.474277099609376,9.667757987976074,1.540573000907898,-0.008734048344194889
1685718471185277200,15.494277099609375,9.657261848449707,1.6451517343521118,-0.06484455615282059
1685718471205277200,15.514277099609375,9.762271881103516,1.584386944770813,0.1267777681350708
1685718471225277200,15.534277099609374,9.866016387939453,1.6268025636672974,0.3492374122142792
1685718471245277200,15.554277099609376,9.614041328430176,1.6464159488677979,0.15907076001167297
1685718471265277200,15.574277099609375,9.544839859008789,1.7384681701660156,0.07161536067724228
1685718471285277200,15.594277099609375,9.734977722167969,1.612121343612671,0.18071433901786804
1685718471305277200,15.614277099609374,9.852398872375488,1.6046323776245117,0.26951050758361816
1685718471325277200,15.634277099609376,9.491630554199219,1.5998055934906006,0.04173572361469269
1685718471345278700,15.65427880859375,9.394770622253418,1.6793314218521118,-0.1140884980559349
1685718471365277200,15.674277099609375,9.598230361938477,1.5465202331542969,-0.043785158544778824
1685718471385277200,15.694277099609375,9.786231994628906,1.548473834991455,0.12964123487472534
1685718471405277200,15.714277099609374,9.588336944580078,1.4925071001052856,-0.04277002066373825
1685718471425277200,15.734277099609375,9.526384353637695,1.653464436531067,-0.0908934697508812
1685718471445277200,15.754277099609375,9.613351821899414,1.6195241212844849,0.04833414405584335
1685718471465277200,15.774277099609375,9.796154022216797,1.5957833528518677,0.28826186060905457
1685718471485277200,15.794277099609374,9.675993919372559,1.579397439956665,0.15792153775691986
1685718471505277200,15.814277099609376,9.797772407531738,1.661010980606079,0.01869392767548561
1685718471525277200,15.834277099609375,9.868880271911621,1.595160722732544,0.1532863825559616
1685718471545277200,15.854277099609375,9.68517780303955,1.6400282382965088,0.25479093194007874
1685718471565277200,15.874277099609374,9.443181991577148,1.6616430282592773,-0.0585334450006485
1685718471585277200,15.894277099609376,9.51969051361084,1.7218140363693237,-0.19553925096988678
1685718471605277200,15.914277099609375,9.746115684509277,1.5777119398117065,-0.06332184374332428
1685718471625277200,15.934277099609375,9.850205421447754,1.5800007581710815,0.07938215136528015
1685718471645277200,15.954277099609374,9.561532020568848,1.5711613893508911,-0.07032249122858047
1685718471665277200,15.974277099609376,9.46022891998291,1.6260076761245728,-0.17075447738170624
1685718471685277200,15.994277099609375,9.621942520141602,1.5298182964324951,-0.023156719282269478
1685718471705277200,16.014277099609377,9.722776412963867,1.5374031066894531,0.18060898780822754
1685718471725277200,16.034277099609376,9.588174819946289,1.5981966257095337,0.06592673808336258
1685718471745277200,16.054277099609376,9.722479820251465,1.6961292028427124,0.01298614963889122
1685718471765277200,16.074277099609375,9.789238929748535,1.6051493883132935,0.1772283911705017
1685718471785277200,16.094277099609375,9.815594673156738,1.6146880388259888,0.3210049867630005
1685718471805277200,16.114277099609374,9.614606857299805,1.5995374917984009,0.07222828269004822
1685718471825278700,16.13427880859375,9.528961181640625,1.7063188552856445,-0.10471280664205551
1685718471845277200,16.154277099609374,9.68846321105957,1.5762274265289307,-0.026403255760669708
1685718471865277200,16.174277099609377,9.793213844299316,1.5430725812911987,0.16193422675132751
1685718471885277200,16.194277099609376,9.622535705566406,1.5483014583587646,0.01573469303548336
1685718471905277200,16.214277099609376,9.511224746704102,1.6240636110305786,-0.10883083194494247
1685718471925277200,16.234277099609375,9.605058670043945,1.5435130596160889,0.021212628111243248
1685718471945277200,16.254277099609375,9.741920471191406,1.5222430229187012,0.23311863839626312
1685718471965277200,16.274277099609375,9.595710754394531,1.5573420524597168,0.05318000912666321
1685718471985277200,16.294277099609374,9.607366561889648,1.6511085033416748,0.00004788403384736739
1685718472005277200,16.314277099609374,9.731022834777832,1.5750782489776611,0.10810299962759018
1685718472025277200,16.334277099609373,9.803604125976562,1.5456007719039917,0.2540918290615082
1685718472045278700,16.35427880859375,9.66828441619873,1.5769648551940918,0.06330269575119019
1685718472065277200,16.374277099609376,9.579727172851562,1.6731351613998413,-0.02123178169131279
1685718472085277200,16.394277099609376,9.620841026306152,1.5793687105178833,0.03968628868460655
1685718472105277200,16.414277099609375,9.72312068939209,1.5925366878509521,0.18420030176639557
1685718472125277200,16.434277099609375,9.580053329467773,1.5390119552612305,-0.06329311430454254
1685718472145277200,16.454277099609374,9.710929870605469,1.5981966257095337,-0.10138007253408432
1685718472165277200,16.474277099609374,9.705681800842285,1.5720232725143433,-0.02364513650536537
1685718472185277200,16.494277099609373,9.67215347290039,1.5303162336349487,0.17560991644859314
1685718472205277200,16.514277099609377,9.506876945495605,1.5257863998413086,0.07389463484287262
1685718472225277200,16.534277099609376,9.66333293914795,1.580843448638916,-0.024305934086441994
1685718472245277200,16.554277099609376,9.840264320373535,1.4848551750183105,0.08763735741376877
1685718472265277200,16.574277099609375,9.826895713806152,1.5033862590789795,0.30364224314689636
1685718472285277200,16.594277099609375,9.470159530639648,1.5673496723175049,0.06832093745470047
1685718472305277200,16.614277099609374,9.55840015411377,1.6832195520401,-0.08856631070375443
1685718472325277200,16.634277099609374,9.751813888549805,1.5484163761138916,0.027648240327835083
1685718472345278700,16.65427880859375,9.875852584838867,1.5457731485366821,0.26590004563331604
1685718472365278700,16.67427880859375,9.569681167602539,1.5860532522201538,0.06508397310972214
1685718472385277200,16.694277099609376,9.465581893920898,1.6384958028793335,-0.07755298167467117
1685718472405277200,16.714277099609376,9.621683120727539,1.532088041305542,0.04377558454871178
1685718472425277200,16.734277099609375,9.765949249267578,1.5037405490875244,0.19288645684719086
1685718472445277200,16.754277099609375,9.585061073303223,1.5486366748809814,0.04569094628095627
1685718472465277200,16.774277099609375,9.64889144897461,1.5762083530426025,-0.04403415694832802
1685718472485277200,16.794277099609374,9.773600578308105,1.5123310089111328,0.15765339136123657
1685718472505277200,16.814277099609374,9.806947708129883,1.5583571195602417,0.3215125501155853
1685718472525277200,16.834277099609373,9.571213722229004,1.552438735961914,0.07037995010614395
1685718472545277200,16.854277099609376,9.53066635131836,1.599863052368164,-0.06201940029859543
1685718472565277200,16.874277099609376,9.674413681030273,1.5179622173309326,0.08722555637359619
1685718472585277200,16.894277099609376,9.85118293762207,1.5258917808532715,0.2296518236398697
1685718472605277200,16.914277099609375,9.645012855529785,1.5518449544906616,0.053304508328437805
1685718472625277200,16.934277099609375,9.525388717651367,1.6077160835266113,-0.08490796387195587
1685718472645277200,16.954277099609374,9.620362281799316,1.5356696844100952,0.045441947877407074
1685718472665277200,16.974277099609374,9.780284881591797,1.526485562324524,0.183912992477417
1685718472685277200,16.994277099609373,9.666349411010742,1.546711802482605,0.031057585030794144
1685718472705277200,17.014277099609377,9.585789680480957,1.597028374671936,-0.06355168670415878
1685718472725277200,17.034277099609376,9.662261009216309,1.5285253524780273,0.06465302407741547
1685718472745277200,17.054277099609376,9.821446418762207,1.5300672054290771,0.2272767722606659
1685718472765277200,17.074277099609375,9.591153144836426,1.5690257549285889,0.042999863624572754
1685718472785277200,17.094277099609375,9.58205509185791,1.6331712007522583,-0.031143775209784508
1685718472805277200,17.114277099609374,9.709465026855469,1.5687862634658813,0.0861433818936348
1685718472825277200,17.134277099609374,9.785255432128906,1.5623219013214111,0.20786459743976593
1685718472845277200,17.154277099609374,9.569308280944824,1.5703281164169312,0.0007374141132459044
1685718472865277200,17.174277099609377,9.66982650756836,1.6296278238296509,-0.09427408874034882
1685718472885277200,17.194277099609376,9.717508316040039,1.5902957916259766,0.04263594374060631
1685718472905277200,17.214277099609376,9.717854499816895,1.578200340270996,0.19710026681423187
1685718472925277200,17.234277099609375,9.552041053771973,1.4973433017730713,0.050699613988399506
1685718472945277200,17.254277099609375,9.602540016174316,1.540764570236206,-0.03318363428115845
1685718472965277200,17.274277099609375,9.81640911102295,1.4893466234207153,0.055219866335392
1685718472985277200,17.294277099609374,9.79531192779541,1.500072717666626,0.2816634476184845
1685718473005278700,17.31427880859375,9.534812927246094,1.5335148572921753,0.06922116130590439
1685718473025277200,17.334277099609373,9.519632339477539,1.65986168384552,-0.10711658746004105
1685718473045277200,17.354277099609376,9.719731330871582,1.6097079515457153,-0.03222595527768135
1685718473065277200,17.374277099609376,9.89554214477539,1.5868959426879883,0.15987521409988403
1685718473085277200,17.394277099609376,9.687744140625,1.6179057359695435,0.03499365225434303
1685718473105277200,17.414277099609375,9.551188468933105,1.6837750673294067,-0.08077079057693481
1685718473125277200,17.434277099609375,9.644927024841309,1.596319556236267,0.015351621434092522
1685718473145277200,17.454277099609374,9.722670555114746,1.5727797746658325,0.16106274724006653
1685718473165277200,17.474277099609374,9.501724243164062,1.6006866693496704,-0.03260902687907219
1685718473185277200,17.494277099609373,9.559885025024414,1.6718806028366089,-0.08368213474750519
1685718473205277200,17.514277099609377,9.84140396118164,1.544796347618103,0.09138189256191254
1685718473225277200,17.534277099609376,9.864436149597168,1.5226739645004272,0.270391583442688
1685718473245277200,17.554277099609376,9.510210037231445,1.5514905452728271,0.07754340022802353
1685718473265277200,17.574277099609375,9.484466552734375,1.6200509071350098,-0.03447650372982025
1685718473285277200,17.594277099609375,9.727948188781738,1.5383416414260864,0.06537128239870071
1685718473305277200,17.614277099609374,9.885553359985352,1.5469895601272583,0.241009920835495
1685718473325277200,17.634277099609374,9.622966766357422,1.6239104270935059,0.0654095932841301
1685718473345277200,17.654277099609374,9.479065895080566,1.6901627779006958,-0.042310334742069244
1685718473365277200,17.674277099609377,9.717203140258789,1.5881123542785645,0.09406339377164841
1685718473385277200,17.694277099609376,9.842543601989746,1.5651854276657104,0.25202324986457825
1685718473405278700,17.71427880859375,9.56799602508545,1.6198019981384277,0.0017621323931962252
1685718473425277200,17.734277099609375,9.47476577758789,1.6642192602157593,-0.048046842217445374
1685718473445277200,17.754277099609375,9.744678497314453,1.536847710609436,0.06152140721678734
1685718473465277200,17.774277099609375,9.873955726623535,1.5414732694625854,0.23899880051612854
1685718473485277200,17.794277099609374,9.61730670928955,1.5951895713806152,0.04594951868057251
1685718473505277200,17.814277099609374,9.47265911102295,1.6422404050827026,-0.053850382566452026
1685718473525277200,17.834277099609373,9.729767799377441,1.548895239830017,0.07973649352788925
1685718473545277200,17.854277099609376,9.867740631103516,1.563930869102478,0.2586216628551483
1685718473565277200,17.874277099609376,9.553640365600586,1.5938200950622559,0.03320278972387314
1685718473585277200,17.894277099609376,9.503965377807617,1.6315336227416992,-0.08487924188375473
1685718473605277200,17.914277099609375,9.738951683044434,1.5664304494857788,0.05600516498088837
1685718473625277200,17.934277099609375,9.778925895690918,1.6427192687988281,0.25110387802124023
1685718473645277200,17.954277099609374,9.567057609558105,1.6243318319320679,0.006627150345593691
1685718473665277200,17.974277099609374,9.582351684570312,1.6520183086395264,-0.004434061702340841
1685718473685277200,17.994277099609373,9.890628814697266,1.4809478521347046,0.05706819146871567
1685718473705277200,18.014277099609377,9.870556831359863,1.5248383283615112,0.3053373396396637
1685718473725277200,18.034277099609376,9.403006553649902,1.528420090675354,0.028749573975801468
1685718473745277200,18.054277099609376,9.399252891540527,1.6856904029846191,-0.11877156049013138
1685718473765277200,18.074277099609375,9.719759941101074,1.5873557329177856,0.10714531689882278
1685718473785277200,18.094277099609375,9.750012397766113,1.5253651142120361,0.10888829082250595
1685718473805277200,18.114277099609374,9.728187561035156,1.6946446895599365,0.12342588603496552
1685718473825277200,18.134277099609374,9.635570526123047,1.6070359945297241,-0.07256346195936203
1685718473845277200,18.154277099609374,9.567181587219238,1.6191219091415405,0.11770853400230408
1685718473865277200,18.174277099609377,9.628655433654785,1.6334584951400757,0.12315773963928223
1685718473885277200,18.194277099609376,9.636632919311523,1.5461275577545166,-0.08196789026260376
1685718473905277200,18.214277099609376,9.677727699279785,1.6844933032989502,0.11094730347394943
1685718473925277200,18.234277099609375,9.662758827209473,1.6455539464950562,0.15948255360126495
1685718473945277200,18.254277099609375,9.776090621948242,1.5282667875289917,0.032810140401124954
1685718473965277200,18.274277099609375,9.713112831115723,1.6100910902023315,0.1739531308412552
1685718473985277200,18.294277099609374,9.56237506866455,1.6253373622894287,0.06342719495296478
1685718474005277200,18.314277099609374,9.568321228027344,1.5771085023880005,-0.04725196585059166
1685718474025277200,18.334277099609373,9.663113594055176,1.5073224306106567,0.10302729159593582
1685718474045277200,18.354277099609376,9.824108123779297,1.5879015922546387,0.03688985854387283
1685718474065277200,18.374277099609376,9.637226104736328,1.7198699712753296,0.07925765216350555
1685718474085277200,18.394277099609376,9.545682907104492,1.7135493755340576,0.10646536201238632
1685718474105277200,18.414277099609375,9.549522399902344,1.6919822692871094,0.02613510563969612
1685718474125277200,18.434277099609375,9.563916206359863,1.7179642915725708,0.0006703764665871859
1685718474145277200,18.454277099609374,9.519498825073242,1.7618739604949951,-0.018301276490092278
1685718474165277200,18.474277099609374,9.655586242675781,1.8097482919692993,0.014796166680753231
1685718474185277200,18.494277099609373,9.783082008361816,1.8202731609344482,0.13048399984836578
1685718474205277200,18.514277099609377,9.691210746765137,1.8025656938552856,0.13736014068126678
1685718474225277200,18.534277099609376,9.657520294189453,1.7880855798721313,0.07982268184423447
1685718474245277200,18.554277099609376,9.659138679504395,1.7139898538589478,0.09523176401853561
1685718474265277200,18.574277099609375,9.690176963806152,1.6713252067565918,0.18574216961860657
1685718474285277200,18.594277099609375,9.68082046508789,1.6845890283584595,0.13370180130004883
1685718474305277200,18.614277099609374,9.465705871582031,1.6922600269317627,0.046811431646347046
1685718474325277200,18.634277099609374,9.44299030303955,1.7156274318695068,0.0007374141132459044
1685718474345278700,18.65427880859375,9.624259948730469,1.7805774211883545,0.030415939167141914
1685718474365277200,18.674277099609377,9.638548851013184,1.856301188468933,0.019507955759763718
1685718474385277200,18.694277099609376,9.492866516113281,1.874822735786438,0.03547249361872673
1685718474405277200,18.714277099609376,9.555794715881348,1.8682529926300049,0.06398265063762665
1685718474425277200,18.734277099609375,9.705347061157227,1.8901169300079346,0.04026089608669281
1685718474445277200,18.754277099609375,9.764876365661621,1.851302146911621,0.15297991037368774
1685718474465277200,18.774277099609375,9.63122272491455,1.8382585048675537,0.13170024752616882
1685718474485277200,18.794277099609374,9.638548851013184,1.8126310110092163,0.0976259708404541
1685718474505277200,18.814277099609374,9.712413787841797,1.7501134872436523,0.04927267134189606
1685718474525277200,18.834277099609373,9.7459716796875,1.6362165212631226,0.06428910046815872
1685718474545277200,18.854277099609376,9.776252746582031,1.649748682975769,0.09084559231996536
1685718474565277200,18.874277099609376,9.524412155151367,1.6665846109390259,0.019163191318511963
1685718474585277200,18.894277099609376,9.40706729888916,1.7357579469680786,-0.12051453441381454
1685718474605277200,18.914277099609375,9.503132820129395,1.7825406789779663,-0.11417469382286072
1685718474625277200,18.934277099609375,9.596899032592773,1.8404514789581299,-0.05957731604576111
1685718474645277200,18.954277099609374,9.624011039733887,1.8933347463607788,-0.003734954632818699
1685718474665277200,18.974277099609374,9.719788551330566,1.9194793701171875,-0.020982785150408745
1685718474685277200,18.994277099609373,9.649188041687012,1.867132544517517,0.1293635070323944
1685718474705277200,19.014277099609377,9.641623497009277,1.7996448278427124,0.14967592060565948
1685718474725277200,19.034277099609376,9.654522895812988,1.7284986972808838,0.1742691546678543
1685718474745277200,19.054277099609376,9.757492065429688,1.6834303140640259,0.09632352739572525
1685718474765277200,19.074277099609375,9.72859001159668,1.6473256349563599,0.10956824570894241
1685718474785277200,19.094277099609375,9.708277702331543,1.6527270078659058,0.08717767149209976
1685718474805277200,19.114277099609374,9.555230140686035,1.7018847465515137,0.039303213357925415
1685718474825277200,19.134277099609374,9.536910057067871,1.7940998077392578,-0.06200982257723808
1685718474845277200,19.154277099609374,9.49209976196289,1.8597393035888672,-0.06846459209918976
1685718474865277200,19.174277099609377,9.563648223876953,1.9203699827194214,0.01724782958626747
1685718474885277200,19.194277099609376,9.504405975341797,1.9631208181381226,0.02872084453701973
1685718474905277200,19.214277099609376,9.589390754699707,1.9855690002441406,0.08087613433599472
1685718474925277200,19.234277099609375,9.60942554473877,1.9274377822875977,0.14762647449970245
1685718474945277200,19.254277099609375,9.694304466247559,1.9024901390075684,0.22720016539096832
1685718474965277200,19.274277099609375,9.629546165466309,1.8494155406951904,0.1873127520084381
1685718474985277200,19.294277099609374,9.75495433807373,1.7948851585388184,0.14874696731567383
1685718475005277200,19.314277099609374,9.718409538269043,1.7472692728042603,0.13777194917201996
1685718475025277200,19.334277099609373,9.720046997070312,1.7359973192214966,0.05813121795654297
1685718475045277200,19.354277099609376,9.580647468566895,1.7908724546432495,-0.03651636466383934
1685718475065277200,19.374277099609376,9.579928398132324,1.798524260520935,-0.10464576631784439
1685718475085277200,19.394277099609376,9.611579895019531,1.8556020259857178,-0.07498639822006226
1685718475105277200,19.414277099609375,9.527189254760742,1.9466679096221924,-0.01779370754957199
1685718475125277200,19.434277099609375,9.44893741607666,2.0018208026885986,0.0326952189207077
1685718475145277200,19.454277099609374,9.520466804504395,1.9623833894729614,0.16912640631198883
1685718475165277200,19.474277099609374,9.756180763244629,1.9719123840332031,0.16191506385803223
1685718475185277200,19.494277099609373,9.698393821716309,1.898295521736145,0.2091478854417801
1685718475205277200,19.514277099609377,9.594284057617188,1.9212032556533813,0.1947060525417328
1685718475225277200,19.534277099609376,9.476537704467773,1.885654091835022,0.08655518293380737
1685718475245277200,19.554277099609376,9.731864929199219,1.8770637512207031,0.046744391322135925
1685718475265277200,19.574277099609375,9.752551078796387,1.8530833721160889,0.04003105312585831
1685718475285277200,19.594277099609375,9.802446365356445,1.9147388935089111,0.0232237558811903
1685718475305277200,19.614277099609374,9.563218116760254,1.946007251739502,0.008082824759185314
1685718475325277200,19.634277099609374,9.45439624786377,2.0264618396759033,-0.034466926008462906
1685718475345278700,19.65427880859375,9.357813835144043,2.061829090118408,-0.09647675603628159
1685718475365278700,19.67427880859375,9.509289741516113,2.105001211166382,0.036765363067388535
1685718475385277200,19.694277099609376,9.626855850219727,2.103440284729004,0.06033388152718544
1685718475405277200,19.714277099609376,9.761917114257812,2.0859339237213135,0.17002663016319275
1685718475425277200,19.734277099609375,9.635704040527344,2.0396203994750977,0.15629348158836365
1685718475445277200,19.754277099609375,9.564260482788086,2.025839328765869,0.14333607256412506
1685718475465277200,19.774277099609375,9.64396858215332,1.9416496753692627,0.06951804459095001
1685718475485277200,19.794277099609374,9.667116165161133,1.8888814449310303,0.08108682185411453
1685718475505277200,19.814277099609374,9.525426864624023,1.8919843435287476,0.036909010261297226
1685718475525277200,19.834277099609373,9.679269790649414,1.9665493965148926,0.04107492417097092
1685718475545277200,19.854277099609376,9.692533493041992,1.9985742568969727,0.0723910853266716
1685718475565277200,19.874277099609376,9.568954467773438,2.045060157775879,0.052164867520332336
1685718475585277200,19.894277099609376,9.45112133026123,2.1147027015686035,-0.05051765590906143
1685718475605277200,19.914277099609375,9.522123336791992,2.150510311126709,0.018732234835624695
1685718475625277200,19.934277099609375,9.557758331298828,2.114041805267334,0.10951078683137894
1685718475645277200,19.954277099609374,9.635656356811523,2.118983507156372,0.14841178059577942
1685718475665277200,19.974277099609374,9.537771224975586,2.125007390975952,0.11254663020372391
1685718475685277200,19.994277099609373,9.595864295959473,2.1055665016174316,0.13736014068126678
1685718475705277200,20.014277099609377,9.604827880859375,2.076510190963745,0.18533994257450104
1685718475725277200,20.034277099609376,9.658794403076172,2.0580365657806396,0.20607373118400574
1685718475745277200,20.054277099609376,9.604445457458496,2.0840952396392822,0.12645216286182404
1685718475765277200,20.074277099609375,9.651936531066895,2.0952329635620117,0.09982863813638687
1685718475785277200,20.094277099609375,9.632400512695312,2.0033912658691406,0.11463437974452972
1685718475805277200,20.114277099609374,9.618647575378418,2.08477520942688,0.1667226254940033
1685718475825277200,20.134277099609374,9.262649536132812,2.1899285316467285,0.04955039918422699
1685718475845277200,20.154277099609374,9.280989646911621,2.214914321899414,-0.01763090118765831
1685718475865277200,20.174277099609377,9.492971420288086,2.1556148529052734,0.136823832988739
1685718475885277200,20.194277099609376,9.797696113586426,2.181912660598755,0.12469960004091263
1685718475905277200,20.214277099609376,9.767193794250488,2.193826198577881,0.07166324555873871
1685718475925277200,20.234277099609375,9.582016944885254,2.2285995483398438,0.05950070172548294
1685718475945277200,20.254277099609375,9.410725593566895,2.2569851875305176,0.05675215646624565
1685718475965277200,20.274277099609375,9.557623863220215,2.2651255130767822,0.06983407586812973
1685718475985278700,20.29427880859375,9.522841453552246,2.2714173793792725,0.03963840380311012
1685718476005277200,20.314277099609374,9.62102222442627,2.267289876937866,0.07801266759634018
1685718476025277200,20.334277099609373,9.592378616333008,2.221512794494629,0.12484325468540192
1685718476045277200,20.354277099609376,9.573205947875977,2.28181791305542,0.08476431667804718
1685718476065277200,20.374277099609376,9.357938766479492,2.307234525680542,0.004079719539731741
1685718476085277200,20.394277099609376,9.392022132873535,2.358125925064087,0.011664550751447678
1685718476105277200,20.414277099609375,9.428854942321777,2.3721461296081543,-0.05547844246029854
1685718476125277200,20.434277099609375,9.65738582611084,2.344804525375366,0.08361509442329407
1685718476145277200,20.454277099609374,9.46573543548584,2.3059513568878174,0.2014002501964569
1685718476165277200,20.474277099609374,9.47412395477295,2.35343337059021,0.13424767553806305
1685718476185277200,20.494277099609373,9.47297477722168,2.297744035720825,0.1360289603471756
1685718476205277200,20.514277099609377,9.589035987854004,2.248979091644287,0.1891227811574936
1685718476225277200,20.534277099609376,9.508849143981934,2.2976675033569336,0.06456683576107025
1685718476245277200,20.554277099609376,9.621319770812988,2.348979949951172,0.06144479289650917
1685718476265277200,20.574277099609375,9.608390808105469,2.281846761703491,0.09513600170612335
1685718476285277200,20.594277099609375,9.570783615112305,2.2924578189849854,0.0679953321814537
1685718476305277200,20.614277099609374,9.424220085144043,2.3275279998779297,0.07292738556861877
1685718476325278700,20.63427880859375,9.393794059753418,2.357302188873291,0.09728120267391205
1685718476345277200,20.654277099609374,9.410218238830566,2.303231716156006,0.11359050869941711
1685718476365277200,20.674277099609377,9.485635757446289,2.272585868835449,0.15418659150600433
1685718476385277200,20.694277099609376,9.483011245727539,2.262606620788574,0.17511190474033356
1685718476405277200,20.714277099609376,9.616455078125,2.2192046642303467,0.11182837933301926
1685718476425277200,20.734277099609375,9.638692855834961,2.153028964996338,0.1516391634941101
1685718476445277200,20.754277099609375,9.670208930969238,2.1182267665863037,0.029295451939105988
1685718476465277200,20.774277099609375,9.782448768615723,2.2041499614715576,-0.03514688089489937
1685718476485277200,20.794277099609374,9.796756744384766,2.171071767807007,-0.032455798238515854
1685718476505277200,20.814277099609374,9.9342041015625,2.154752731323242,-0.09728120267391205
1685718476525277200,20.834277099609373,9.885869026184082,2.124049663543701,-0.04582501947879791
1685718476545277200,20.854277099609376,9.752771377563477,2.211160182952881,-0.030348900705575943
1685718476565277200,20.874277099609376,9.434361457824707,2.2098193168640137,-0.11554417759180069
1685718476585277200,20.894277099609376,9.560622215270996,2.1245760917663574,-0.08535807579755783
1685718476605277200,20.914277099609375,9.758143424987793,2.026050090789795,0.05452075973153114
1685718476625277200,20.934277099609375,9.679718971252441,1.9912000894546509,-0.02343444712460041
1685718476645277200,20.954277099609374,9.352757453918457,2.0293540954589844,-0.12272677570581436
1685718476665277200,20.974277099609374,9.040946006774902,2.021845817565918,-0.1935185343027115
1685718476685277200,20.994277099609373,9.104440689086914,2.0432021617889404,-0.09807608276605606
1685718476705277200,21.014277099609377,9.298447608947754,2.060603380203247,-0.036966472864151
1685718476725277200,21.034277099609376,9.489925384521484,2.093212127685547,0.04551856219768524
1685718476745277200,21.054277099609376,9.48977279663086,2.2355620861053467,0.11105264723300934
1685718476765277200,21.074277099609375,9.65760612487793,2.2886078357696533,0.314071387052536
1685718476785277200,21.094277099609375,9.600893020629883,2.2313098907470703,0.31431078910827637
1685718476805277200,21.114277099609374,9.761582374572754,2.267261266708374,0.2667619585990906
1685718476825277200,21.134277099609374,9.748480796813965,2.3207952976226807,0.31941521167755127
1685718476845277200,21.154277099609374,9.788435935974121,2.2378792762756348,0.3274884819984436
1685718476865277200,21.174277099609377,9.966506004333496,2.2472264766693115,0.533207893371582
1685718476885277200,21.194277099609376,9.772537231445312,2.2313289642333984,0.5022939443588257
1685718476905277200,21.214277099609376,9.586288452148438,2.16796875,0.2937110960483551
1685718476925277200,21.234277099609375,9.419095993041992,2.078444719314575,0.2032294124364853
1685718476945277200,21.254277099609375,9.228363990783691,2.061905860900879,0.1049809604883194
1685718476965277200,21.274277099609375,9.29062271118164,2.0039851665496826,0.03343263268470764
1685718476985277200,21.294277099609374,9.3965425491333,2.030484199523926,0.13147039711475372
1685718477005277200,21.314277099609374,9.40390682220459,1.9444365501403809,0.0835384801030159
1685718477025277200,21.334277099609373,9.404328346252441,1.9075466394424438,-0.023712173104286194
1685718477045277200,21.354277099609376,9.418272018432617,2.0603349208831787,0.019163191318511963
1685718477065278700,21.37427880859375,9.757377624511719,2.101658821105957,0.03714843466877937
1685718477085278700,21.39427880859375,9.806401252746582,2.2183523178100586,-0.03599921613931656
1685718477105277200,21.414277099609375,9.649015426635742,2.271608829498291,0.17945021390914917
1685718477125277200,21.434277099609375,9.225041389465332,2.1728336811065674,0.01497812569141388
1685718477145277200,21.454277099609374,9.60401439666748,2.168687105178833,0.04594951868057251
1685718477165277200,21.474277099609374,9.56717300415039,2.1906561851501465,0.26852408051490784
1685718477185277200,21.494277099609373,9.830161094665527,2.118590831756592,0.20880311727523804
1685718477205277200,21.514277099609377,9.974780082702637,2.0942752361297607,0.06948930770158768
1685718477225277200,21.534277099609376,9.825909614562988,2.2053565979003906,0.13885413110256195
1685718477245277200,21.554277099609376,9.857033729553223,2.1335976123809814,0.16938498616218567
1685718477265277200,21.574277099609375,9.48502254486084,2.088280200958252,-0.05062299966812134
1685718477285277200,21.594277099609375,9.159028053283691,1.9489089250564575,-0.17608875036239624
1685718477305277200,21.614277099609374,9.338842391967773,1.92482328414917,-0.03902548551559448
1685718477325278700,21.63427880859375,9.28915786743164,1.7562906742095947,-0.05561251938343048
1685718477345278700,21.65427880859375,9.329437255859375,1.7091822624206543,-0.22384828329086304
1685718477365278700,21.67427880859375,9.494810104370117,1.9507859945297241,-0.1026059091091156
1685718477385278700,21.69427880859375,9.423596382141113,1.8846772909164429,0.052806511521339417
1685718477405278700,21.71427880859375,9.805108070373535,2.0709080696105957,-0.018665198236703873
1685718477425277200,21.734277099609375,10.282005310058594,2.088040828704834,0.016740258783102036
1685718477445277200,21.754277099609375,9.8977632522583,1.9685988426208496,-0.013129801489412785
1685718477465277200,21.774277099609375,9.633597373962402,2.0546369552612305,0.05141787603497505
1685718477485277200,21.794277099609374,9.742274284362793,2.0277931690216064,0.34690067172050476
1685718477505277200,21.814277099609374,9.708248138427734,1.9620674848556519,0.29042622447013855
1685718477525277200,21.834277099609373,9.776702880859375,1.9725444316864014,0.19848889112472534
1685718477545277200,21.854277099609376,9.502691268920898,2.0059006214141846,0.23396138846874237
1685718477565277200,21.874277099609376,9.343976020812988,1.805199384689331,-0.04516422376036644
1685718477585277200,21.894277099609376,9.499186515808105,1.748610019683838,0.07916188985109329
1685718477605277200,21.914277099609375,9.265052795410156,1.6281049251556396,0.18394172191619873
1685718477625277200,21.934277099609375,9.441802978515625,1.5406304597854614,0.051053959876298904
1685718477645277200,21.954277099609374,9.517219543457031,1.4993832111358643,0.30685046315193176
1685718477665277200,21.974277099609374,9.377628326416016,1.4436557292938232,0.19373880326747894
1685718477685277200,21.994277099609373,9.491860389709473,1.6356133222579956,0.14681245386600494
1685718477705277200,22.014277099609377,9.466117858886719,1.7485430240631104,0.31968337297439575
1685718477725277200,22.034277099609376,9.781722068786621,1.7429500818252563,0.21955788135528564
1685718477745277200,22.054277099609376,10.258512496948242,1.861290693283081,0.4444308876991272
1685718477765277200,22.074277099609375,10.157342910766602,1.7727723121643066,0.37174293398857117
1685718477785277200,22.094277099609375,9.894296646118164,1.7424713373184204,0.2762429714202881
1685718477805277200,22.114277099609374,9.793482780456543,1.7357004880905151,0.20738576352596283
1685718477825277200,22.134277099609374,9.57235336303711,1.6099282503128052,0.04553771764039993
1685718477845277200,22.154277099609374,9.487263679504395,1.629579782485962,0.04045243188738823
1685718477865277200,22.174277099609377,9.496869087219238,1.6106561422348022,-0.08481220155954361
1685718477885277200,22.194277099609376,9.29985523223877,1.5467021465301514,-0.249427929520607
1685718477905277200,22.214277099609376,9.325434684753418,1.5662868022918701,-0.2798725962638855
1685718477925277200,22.234277099609375,9.480013847351074,1.4440196752548218,-0.23873063921928406
1685718477945277200,22.254277099609375,9.621587753295898,1.4113531112670898,-0.0415920726954937
1685718477965277200,22.274277099609375,9.640607833862305,1.5308622121810913,0.09571061283349991
1685718477985277200,22.294277099609374,9.587523460388184,1.6638743877410889,0.02900814823806286
1685718478005277200,22.314277099609374,9.777440071105957,1.7361506223678589,0.33633747696876526
1685718478025277200,22.334277099609373,9.766647338867188,1.6134716272354126,0.48953762650489807
1685718478045277200,22.354277099609376,9.948185920715332,1.750008225440979,0.2729102671146393
1685718478065277200,22.374277099609376,9.972654342651367,1.7261523008346558,0.43203848600387573
1685718478085277200,22.394277099609376,9.517267227172852,1.5460413694381714,0.3009607195854187
1685718478105277200,22.414277099609375,9.520600318908691,1.6509075164794922,0.18952500820159912
1685718478125278700,22.43427880859375,9.573626518249512,1.5237466096878052,0.14691779017448425
1685718478145277200,22.454277099609374,9.580934524536133,1.4097920656204224,0.10716446489095688
1685718478165277200,22.474277099609374,9.587389945983887,1.4965676069259644,0.18131768703460693
1685718478185277200,22.494277099609373,9.541104316711426,1.4273080825805664,0.13378798961639404
1685718478205277200,22.514277099609377,9.588653564453125,1.4654333591461182,0.21711578965187073
1685718478225277200,22.534277099609376,9.425857543945312,1.507954478263855,0.13146083056926727
1685718478245277200,22.554277099609376,9.6810884475708,1.5156254768371582,-0.0013982137897983193
1685718478265277200,22.574277099609375,9.883647918701172,1.6305757761001587,0.3415280878543854
1685718478285277200,22.594277099609375,9.904668807983398,1.6386970281600952,0.17622283101081848
1685718478305277200,22.614277099609374,9.955876350402832,1.7868213653564453,0.13701538741588593
1685718478325277200,22.634277099609374,9.95437240600586,1.7923089265823364,0.14320199191570282
1685718478345278700,22.65427880859375,9.81535530090332,1.6635680198669434,0.01318726222962141
1685718478365277200,22.674277099609377,9.86905288696289,1.648350477218628,-0.1273619532585144
1685718478385277200,22.694277099609376,9.794775009155273,1.457656979560852,-0.24864263832569122
1685718478405277200,22.714277099609376,9.74389362335205,1.4212843179702759,-0.24842236936092377
1685718478425277200,22.734277099609375,9.527103424072266,1.3943160772323608,-0.26093927025794983
1685718478445277200,22.754277099609375,9.349817276000977,1.304131269454956,-0.39505285024642944
1685718478465277200,22.774277099609375,9.412152290344238,1.3898245096206665,-0.19146910309791565
1685718478485277200,22.794277099609374,9.25221061706543,1.30977201461792,-0.1156495213508606
1685718478505277200,22.814277099609374,9.358599662780762,1.4013166427612305,0.007661445531994104
1685718478525277200,22.834277099609373,9.530302047729492,1.5062114000320435,0.1946869045495987
1685718478545277200,22.854277099609376,9.464163780212402,1.506469964981079,0.3576841354370117
1685718478565277200,22.874277099609376,9.434743881225586,1.675931692123413,0.4642931818962097
1685718478585277200,22.894277099609376,9.537321090698242,1.761816382408142,0.4739561676979065
1685718478605277200,22.914277099609375,9.642207145690918,1.7394928932189941,0.6284396648406982
1685718478625277200,22.934277099609375,9.681700706481934,1.8121329545974731,0.7120547294616699
1685718478645277200,22.954277099609374,9.948424339294434,1.735556721687317,0.5214380025863647
1685718478665277200,22.974277099609374,10.141167640686035,1.6743035316467285,0.6459556221961975
1685718478685277200,22.994277099609373,10.118145942687988,1.6244370937347412,0.5854493379592896
1685718478705277200,23.014277099609377,10.069475173950195,1.6960716247558594,0.13894030451774597
1685718478725277200,23.034277099609376,10.232569694519043,1.6845028400421143,0.1748725026845932
1685718478745277200,23.054277099609376,10.080901145935059,1.4548413753509521,0.0225150715559721
1685718478765277200,23.074277099609375,10.003606796264648,1.494786262512207,-0.10049901157617569
1685718478785277200,23.094277099609375,9.742696762084961,1.470882534980774,-0.3442000150680542
1685718478805277200,23.114277099609374,9.28786563873291,1.4215046167373657,-0.1800822764635086
1685718478825277200,23.134277099609374,8.97414779663086,1.4797985553741455,-0.3208422064781189
1685718478845277200,23.154277099609374,9.224207878112793,1.5014231204986572,-0.4559517800807953
1685718478865277200,23.174277099609377,9.30501651763916,1.466745376586914,-0.20932026207447052
1685718478885277200,23.194277099609376,9.35234546661377,1.509936809539795,-0.10411904007196426
1685718478905277200,23.214277099609376,9.364930152893066,1.5258151292800903,-0.2691178619861603
1685718478925277200,23.234277099609375,9.677094459533691,1.56959068775177,0.041668687015771866
1685718478945277200,23.254277099609375,9.749964714050293,1.4663623571395874,-0.02900814823806286
1685718478965277200,23.274277099609375,9.893340110778809,1.6288232803344727,0.07815632224082947
1685718478985277200,23.294277099609374,9.832651138305664,1.685901165008545,0.30182263255119324
1685718479005277200,23.314277099609374,9.804207801818848,1.7056771516799927,0.2740977704524994
1685718479025277200,23.334277099609373,9.825995445251465,1.8668643236160278,0.40082767605781555
1685718479045277200,23.354277099609376,9.563648223876953,1.7525843381881714,0.3279002904891968
1685718479065277200,23.374277099609376,9.579143524169922,1.8000949621200562,0.15478993952274323
1685718479085277200,23.394277099609376,9.772164344787598,1.7273590564727783,0.33825281262397766
1685718479105277200,23.414277099609375,9.538490295410156,1.5993459224700928,0.15262556076049805
1685718479125336600,23.434336669921876,9.694591522216797,1.6954108476638794,0.23581929504871368
1685718479145277200,23.454277099609374,9.378557205200195,1.513260006904602,0.23097342252731323
1685718479165277200,23.474277099609374,9.34411907196045,1.6070934534072876,0.12614570558071136
1685718479185277200,23.494277099609373,9.634076118469238,1.5889453887939453,0.25027069449424744
1685718479205277200,23.514277099609377,9.658391952514648,1.4959930181503296,0.3712066113948822
1685718479225277200,23.534277099609376,9.889412879943848,1.6134430170059204,0.21544942259788513
1685718479245278700,23.55427880859375,9.956315994262695,1.5691884756088257,0.256102979183197
1685718479265278700,23.57427880859375,9.783129692077637,1.5153381824493408,0.26300784945487976
1685718479285278700,23.59427880859375,9.88927936553955,1.6609055995941162,0.17436490952968597
1685718479305278700,23.61427880859375,9.811380386352539,1.648369550704956,0.08236053586006165
1685718479325278700,23.63427880859375,9.895120620727539,1.6586647033691406,0.18753303587436676
1685718479345277200,23.654277099609374,9.594648361206055,1.5750304460525513,0.016452953219413757
1685718479365277200,23.674277099609377,9.419449806213379,1.5404772758483887,-0.2209656685590744
1685718479385277200,23.694277099609376,9.6120023727417,1.503022313117981,-0.06806236505508423
1685718479405277200,23.714277099609376,9.432848930358887,1.4103572368621826,-0.03823061287403107
1685718479425277200,23.734277099609375,9.369996070861816,1.6369444131851196,-0.2148173451423645
1685718479445277200,23.754277099609375,9.357813835144043,1.5937434434890747,-0.021576546132564545
1685718479465277200,23.774277099609375,9.339924812316895,1.4996896982192993,0.07396167516708374
1685718479485278700,23.79427880859375,9.659712791442871,1.6593540906906128,0.030703242868185043
1685718479505277200,23.814277099609374,9.718648910522461,1.5911768674850464,0.16410815715789795
1685718479525277200,23.834277099609373,9.850646018981934,1.6875770092010498,0.2903687655925751
1685718479545277200,23.854277099609376,9.896700859069824,1.7599010467529297,0.23418165743350983
1685718479565277200,23.874277099609376,10.008146286010742,1.7890145778656006,0.21232737600803375
1685718479585277200,23.894277099609376,10.30008602142334,1.8773127794265747,0.4401117265224457
1685718479605277200,23.914277099609375,9.985660552978516,1.7579379081726074,0.3652689754962921
1685718479625277200,23.934277099609375,9.7132568359375,1.8065496683120728,0.31635063886642456
1685718479645277200,23.954277099609374,9.493613243103027,1.6494899988174438,0.3420931100845337
1685718479665277200,23.974277099609374,9.421911239624023,1.4856500625610352,0.12760137021541595
1685718479685277200,23.994277099609373,9.491286277770996,1.4473044872283936,0.14822980761528015
1685718479705277200,24.014277099609377,9.405219078063965,1.2863950729370117,0.07592492550611496
1685718479725277200,24.034277099609376,9.652424812316895,1.318984866142273,0.02009214088320732
1685718479745277200,24.054277099609376,9.474076271057129,1.3022637367248535,0.14092271029949188
1685718479765277200,24.074277099609375,9.356962203979492,1.3609312772750854,0.06482540816068649
1685718479785277200,24.094277099609375,9.55066204071045,1.5342044830322266,0.10432016104459763
1685718479805277200,24.114277099609374,9.697580337524414,1.5043439865112305,0.07130890339612961
1685718479825277200,24.134277099609374,9.88967227935791,1.5645724534988403,0.245472714304924
1685718479845277200,24.154277099609374,9.97900390625,1.5931880474090576,0.341077983379364
1685718479865277200,24.174277099609377,10.01598072052002,1.5946053266525269,0.3420739769935608
1685718479885277200,24.194277099609376,9.811515808105469,1.6765062808990479,0.38948872685432434
1685718479905277200,24.214277099609376,9.531546592712402,1.6109721660614014,0.25243502855300903
1685718479925277200,24.234277099609375,9.457469940185547,1.6643916368484497,0.21883003413677216
1685718479945277200,24.254277099609375,9.547281265258789,1.634760856628418,0.03071282058954239
1685718479965277200,24.274277099609375,9.595041275024414,1.5638446807861328,-0.08459193259477615
1685718479985277200,24.294277099609374,9.641191482543945,1.5630689859390259,0.03418920189142227
1685718480005277200,24.314277099609374,9.695751190185547,1.4711315631866455,-0.03794331103563309
1685718480025277200,24.334277099609373,9.62015151977539,1.5159127712249756,0.1785404086112976
1685718480045277200,24.354277099609376,9.254690170288086,1.5417126417160034,0.14129620790481567
1685718480065277200,24.374277099609376,9.205829620361328,1.6160861253738403,0.19976261258125305
1685718480085277200,24.394277099609376,9.222359657287598,1.642949104309082,0.428006649017334
1685718480105277200,24.414277099609375,9.447903633117676,1.5734789371490479,0.3495821952819824
1685718480125277200,24.434277099609375,9.954678535461426,1.6428821086883545,0.3582683503627777
1685718480145277200,24.454277099609374,10.110818862915039,1.566526174545288,0.31397560238838196
1685718480165277200,24.474277099609374,10.02544116973877,1.5839464664459229,0.1327153891324997
1685718480185277200,24.494277099609373,10.165023803710938,1.589510440826416,0.23666204512119293
1685718480205277200,24.514277099609377,9.960482597351074,1.501710295677185,0.15790238976478577
1685718480225277200,24.534277099609376,9.897821426391602,1.602257251739502,0.13320380449295044
1685718480245277200,24.554277099609376,9.696038246154785,1.5471713542938232,0.19163189828395844
1685718480265277200,24.574277099609375,9.424114227294922,1.5642086267471313,0.3128455579280853
1685718480285277200,24.594277099609375,9.431727409362793,1.6515586376190186,0.29209262132644653
1685718480305277200,24.614277099609374,9.430194854736328,1.6018166542053223,0.12242989987134933
1685718480325277200,24.634277099609374,9.477791786193848,1.621755599975586,0.4226532280445099
1685718480345277200,24.654277099609374,9.237059593200684,1.572243571281433,0.2518508732318878
1685718480365277200,24.674277099609377,9.322868347167969,1.6737384796142578,0.09508810937404633
1685718480385277200,24.694277099609376,9.677602767944336,1.5865895748138428,0.1986038237810135
1685718480405277200,24.714277099609376,9.791278839111328,1.4737173318862915,0.07359776645898819
1685718480425277200,24.734277099609375,10.03541088104248,1.590219259262085,0.12053368985652924
1685718480445277200,24.754277099609375,10.132376670837402,1.514581561088562,0.07509174197912216
1685718480465277200,24.774277099609375,10.042248725891113,1.5609906911849976,0.08572199940681458
1685718480485277200,24.794277099609374,9.975872039794922,1.645544409751892,0.12836752831935883
1685718480505277200,24.814277099609374,9.7489595413208,1.517943024635315,0.095854252576828
1685718480525277200,24.834277099609373,9.7459716796875,1.5486845970153809,0.040078938007354736
1685718480545277200,24.854277099609376,9.472247123718262,1.497372031211853,-0.04900452122092247
1685718480565277200,24.874277099609376,9.407325744628906,1.519685983657837,0.12022723257541656
1685718480585277200,24.894277099609376,9.377408027648926,1.5772521495819092,0.2015247493982315
1685718480605277200,24.914277099609375,9.157419204711914,1.5860724449157715,-0.007201758679002523
1685718480625277200,24.934277099609375,9.204652786254883,1.6052355766296387,0.13560758531093597
1685718480645277200,24.954277099609374,9.330242156982422,1.5017390251159668,0.21665610373020172
1685718480665277200,24.974277099609374,9.714502334594727,1.5138249397277832,0.2388455718755722
1685718480685277200,24.994277099609373,9.929108619689941,1.5404390096664429,0.31423419713974
1685718480705277200,25.014277099609377,10.056288719177246,1.5837740898132324,0.30226317048072815
1685718480725277200,25.034277099609376,10.076323509216309,1.667504072189331,0.5411087870597839
1685718480745277200,25.054277099609376,9.841835021972656,1.7005152702331543,0.4585566818714142
1685718480765277200,25.074277099609375,9.71218490600586,1.794071078300476,0.36008793115615845
1685718480785277200,25.094277099609375,9.613083839416504,1.8164808750152588,0.4101746082305908
1685718480805277200,25.114277099609374,9.53195858001709,1.7012622356414795,0.35664987564086914
1685718480825277200,25.134277099609374,9.514673233032227,1.5854116678237915,0.27661648392677307
1685718480845277200,25.154277099609374,9.465198516845703,1.5390311479568481,0.03518518805503845
1685718480865277200,25.174277099609377,9.380012512207031,1.5215439796447754,0.13639287650585175
1685718480885277200,25.194277099609376,9.347356796264648,1.4912716150283813,0.093728207051754
1685718480905277200,25.214277099609376,9.426374435424805,1.4774811267852783,-0.006052541546523571
1685718480925277200,25.234277099609375,9.902495384216309,1.5174354314804077,0.027811046689748764
1685718480945277200,25.254277099609375,9.971246719360352,1.5107604265213013,0.060056157410144806
1685718480965277200,25.274277099609375,9.804217338562012,1.6503807306289673,0.12153925001621246
