time,seconds_elapsed,z,y,x
1685734979270928400,0.076928466796875,9.64157485961914,1.8833749294281006,0.3558262586593628
1685734979290928400,0.096928466796875,9.640626907348633,1.992061972618103,0.486731618642807
1685734979310928400,0.116928466796875,9.657166481018066,2.0059962272644043,0.4679132103919983
1685734979330928400,0.136928466796875,9.583884239196777,1.8681285381317139,0.24178564548492432
1685734979350928400,0.156928466796875,9.472332954406738,1.7041065692901611,0.10654197633266449
1685734979370928400,0.176928466796875,9.562259674072266,1.7777330875396729,0.19286730885505676
1685734979390926800,0.1969267578125,9.745664596557617,1.777091383934021,0.24864263832569122
1685734979410928400,0.216928466796875,9.720669746398926,1.8947042226791382,0.3426198363304138
1685734979430926800,0.2369267578125,9.756840705871582,1.9253116846084595,0.45994532108306885
1685734979450928400,0.256928466796875,9.653660774230957,1.9506901502609253,0.4524275064468384
1685734979470928400,0.276928466796875,9.402546882629395,1.9776967763900757,0.42457816004753113
1685734979490928400,0.296928466796875,9.45683765411377,1.8902604579925537,0.2452428787946701
1685734979510928400,0.316928466796875,9.45112133026123,1.7737778425216675,0.1640123873949051
1685734979530928400,0.336928466796875,9.557193756103516,1.8326081037521362,0.21849484741687775
1685734979550928400,0.356928466796875,9.774702072143555,1.8000566959381104,0.25771188735961914
1685734979570928400,0.376928466796875,9.829768180847168,1.8311620950698853,0.35448551177978516
1685734979590928400,0.396928466796875,9.76863956451416,1.8851561546325684,0.35092294216156006
1685734979610928400,0.416928466796875,9.60338306427002,2.004617214202881,0.4192534387111664
1685734979630928400,0.436928466796875,9.542062759399414,1.8700534105300903,0.34706348180770874
1685734979650926800,0.4569267578125,9.528328895568848,1.7474128007888794,0.22316832840442657
1685734979670928400,0.476928466796875,9.564212799072266,1.701319694519043,0.13831782341003418
1685734979690928400,0.496928466796875,9.626089096069336,1.7832589149475098,0.1816241443157196
1685734979710928400,0.516928466796875,9.676520347595215,1.774869680404663,0.24308809638023376
1685734979730928400,0.536928466796875,9.657299995422363,1.9014557600021362,0.4216380715370178
1685734979750928400,0.556928466796875,9.72597599029541,1.8393598794937134,0.37701016664505005
1685734979770928400,0.576928466796875,9.669309616088867,1.787137508392334,0.3076261878013611
1685734979790928400,0.596928466796875,9.511033058166504,1.9295350313186646,0.41193675994873047
1685734979810928400,0.616928466796875,9.600480079650879,1.9202455282211304,0.3810036778450012
1685734979830928400,0.636928466796875,9.683923721313477,1.8560330867767334,0.3583258092403412
1685734979850928400,0.656928466796875,9.567392349243164,1.8180419206619263,0.31751903891563416
1685734979870928400,0.676928466796875,9.623675346374512,1.7906330823898315,0.2320077270269394
1685734979890928400,0.696928466796875,9.632974624633789,1.8849071264266968,0.2531149983406067
1685734979910928400,0.716928466796875,9.803642272949219,1.8574790954589844,0.18988892436027527
1685734979930928400,0.736928466796875,9.718831062316895,1.8730510473251343,0.3301412761211395
1685734979950926800,0.7569267578125,9.622611999511719,1.8394938707351685,0.34450647234916687
1685734979970928400,0.776928466796875,9.638338088989258,1.717763066291809,0.15081554651260376
1685734979990928400,0.796928466796875,9.66579532623291,1.7725616693496704,0.2675376832485199
1685734980010928400,0.816928466796875,9.715326309204102,1.8540409803390503,0.2620980441570282
1685734980030928400,0.836928466796875,9.4497709274292,1.7637604475021362,0.16513288021087646
1685734980050928400,0.856928466796875,9.518445014953613,1.8022593259811401,0.12699803709983826
1685734980070928400,0.876928466796875,9.673723220825195,1.8038681745529175,0.13231316208839417
1685734980090928400,0.896928466796875,9.822020530700684,1.872418999671936,0.26517221331596375
1685734980110928400,0.916928466796875,9.74907398223877,1.897749662399292,0.35395878553390503
1685734980130928400,0.936928466796875,9.549091339111328,1.906646490097046,0.28814697265625
1685734980150928400,0.956928466796875,9.567900657653809,1.8750046491622925,0.22088904678821564
1685734980170928400,0.976928466796875,9.513734817504883,1.8585325479507446,0.17617493867874146
1685734980190928400,0.996928466796875,9.502394676208496,1.8070285320281982,0.2236088514328003
1685734980210928400,1.016928466796875,9.42671012878418,1.8037341833114624,0.1794119030237198
1685734980230928400,1.036928466796875,9.616119384765625,1.828672170639038,0.3434530198574066
1685734980250928400,1.056928466796875,9.593873023986816,2.0282528400421143,0.4677025079727173
1685734980270928400,1.076928466796875,9.733646392822266,1.9641648530960083,0.4549749493598938
1685734980290928400,1.096928466796875,9.755959510803223,1.8675731420516968,0.1764335185289383
1685734980310928400,1.116928466796875,9.761917114257812,1.6253852844238281,0.05158068239688873
1685734980330926800,1.1369267578125,9.642972946166992,1.523430585861206,-0.12981361150741577
1685734980350928400,1.156928466796875,9.666666030883789,1.6071605682373047,0.05983588844537735
1685734980370928400,1.176928466796875,9.630245208740234,1.8512924909591675,0.3717907965183258
1685734980390926800,1.1969267578125,9.637907028198242,1.9335860013961792,0.4324024021625519
1685734980410928400,1.216928466796875,9.460966110229492,1.964250922203064,0.39701610803604126
1685734980430928400,1.236928466796875,9.535627365112305,1.9762698411941528,0.4173380732536316
1685734980450928400,1.256928466796875,9.757913589477539,1.9761453866958618,0.4350168704986572
1685734980470928400,1.276928466796875,9.873640060424805,1.7790449857711792,0.30786558985710144
1685734980490928400,1.296928466796875,9.662882804870605,1.7066826820373535,0.17792749404907227
1685734980510926800,1.3169267578125,9.75393009185791,1.751636266708374,0.1691838651895523
1685734980530928400,1.336928466796875,9.607586860656738,1.8180705308914185,0.14594095945358276
1685734980550926800,1.3569267578125,9.565218925476074,1.852977991104126,0.20217595994472504
1685734980570928400,1.376928466796875,9.421327590942383,1.9212032556533813,0.08771397173404694
1685734980590928400,1.396928466796875,9.512507438659668,1.7825502157211304,-0.04677312448620796
1685734980610928400,1.416928466796875,9.662738800048828,1.7525460720062256,-0.15094004571437836
1685734980630928400,1.436928466796875,9.852810859680176,1.639453649520874,-0.14756901562213898
1685734980650928400,1.456928466796875,9.81220531463623,1.681936264038086,-0.07128974795341492
1685734980670928400,1.476928466796875,9.842744827270508,1.7692959308624268,0.18324261903762817
1685734980690928400,1.496928466796875,9.516615867614746,1.9402801990509033,0.3197312653064728
1685734980710928400,1.516928466796875,9.328901290893555,1.9451547861099243,0.3008745312690735
1685734980730928400,1.536928466796875,9.310294151306152,2.0628442764282227,0.46754929423332214
1685734980750928400,1.556928466796875,9.655000686645508,2.0060441493988037,0.4571392834186554
1685734980770928400,1.576928466796875,9.72748851776123,1.917966365814209,0.20868819952011108
1685734980790928400,1.596928466796875,9.74259090423584,1.5765434503555298,-0.05253836140036583
1685734980810928400,1.616928466796875,9.740311622619629,1.5901042222976685,-0.023491907864809036
1685734980830928400,1.636928466796875,9.82020092010498,1.75879967212677,0.2317778766155243
1685734980850928400,1.656928466796875,9.596458435058594,2.030627727508545,0.395704060792923
1685734980870928400,1.676928466796875,9.407593727111816,2.1471199989318848,0.5171092748641968
1685734980890928400,1.696928466796875,9.391936302185059,2.0923025608062744,0.48353299498558044
1685734980910928400,1.716928466796875,9.491706848144531,1.893966794013977,0.19958065450191498
1685734980930928400,1.736928466796875,9.732162475585938,1.613826036453247,-0.1202559694647789
1685734980950928400,1.756928466796875,10.006997108459473,1.6384958028793335,-0.038853105157613754
1685734980970928400,1.776928466796875,9.784987449645996,1.676161527633667,-0.03741658478975296
1685734980990928400,1.796928466796875,9.627937316894531,1.652813196182251,0.1395532190799713
1685734981010928400,1.816928466796875,9.482216835021973,1.7895029783248901,0.1947922557592392
1685734981030928400,1.836928466796875,9.506062507629395,1.9407398700714111,0.30528944730758667
1685734981050928400,1.856928466796875,9.37360668182373,2.0847272872924805,0.41089287400245667
1685734981070928400,1.876928466796875,9.67602252960205,2.068418025970459,0.34525343775749207
1685734981090928400,1.896928466796875,9.699419021606445,1.8918884992599487,0.3744722902774811
1685734981110928400,1.916928466796875,9.731060981750488,1.7117489576339722,0.2170487493276596
1685734981130928400,1.936928466796875,9.639286041259766,1.7049684524536133,0.08696697652339935
1685734981150928400,1.956928466796875,9.693950653076172,1.86899995803833,0.25664883852005005
1685734981170928400,1.976928466796875,9.635570526123047,2.010650634765625,0.39999446272850037
1685734981190928400,1.996928466796875,9.429400444030762,1.9092991352081299,0.3945261240005493
1685734981210928400,2.016928466796875,9.502836227416992,1.9099313020706177,0.399257093667984
1685734981230928400,2.036928466796875,9.825909614562988,1.8159924745559692,0.3686017096042633
1685734981250928400,2.056928466796875,9.876455307006836,1.8616163730621338,0.3295474946498871
1685734981270928400,2.076928466796875,9.802389144897461,1.7490792274475098,-0.0025282769929617643
1685734981290928400,2.096928466796875,9.513216972351074,1.7242944240570068,-0.019211074337363243
1685734981310928400,2.116928466796875,9.551620483398438,1.8635029792785645,0.17259322106838226
1685734981330928400,2.136928466796875,9.615410804748535,1.9259437322616577,0.19401653110980988
1685734981350928400,2.156928466796875,9.620821952819824,1.9663290977478027,0.2548196613788605
1685734981370928400,2.176928466796875,9.588298797607422,1.9187419414520264,0.24613352119922638
1685734981390926800,2.1969267578125,9.6461820602417,1.8461976051330566,0.12731407582759857
1685734981410928400,2.216928466796875,9.536478042602539,1.8608119487762451,0.05294058471918106
1685734981430928400,2.236928466796875,9.567832946777344,1.696761131286621,-0.1257338970899582
1685734981450928400,2.256928466796875,9.417095184326172,1.5915886163711548,-0.1446768194437027
1685734981470928400,2.276928466796875,9.649389266967773,1.6421829462051392,-0.02229480631649494
1685734981490928400,2.296928466796875,9.850119590759277,1.7775415182113647,0.19106687605381012
1685734981510928400,2.316928466796875,9.837132453918457,1.9019633531570435,0.44789767265319824
1685734981530928400,2.336928466796875,9.68764877319336,2.0719995498657227,0.5528115630149841
1685734981550928400,2.356928466796875,9.607165336608887,2.002232551574707,0.4094180464744568
1685734981570928400,2.376928466796875,9.48719596862793,1.9358654022216797,0.3480307459831238
1685734981590928400,2.396928466796875,9.51401138305664,1.8254446983337402,0.2608530521392822
1685734981610928400,2.416928466796875,9.519489288330078,1.7638658285140991,0.13760912418365479
1685734981630928400,2.436928466796875,9.64846134185791,1.7835460901260376,0.1662246435880661
1685734981650928400,2.456928466796875,9.653651237487793,1.8493196964263916,0.3099629282951355
1685734981670928400,2.476928466796875,9.722431182861328,1.9182822704315186,0.3471975326538086
1685734981690928400,2.496928466796875,9.728809356689453,1.8781075477600098,0.20619823038578033
1685734981710928400,2.516928466796875,9.745540618896484,1.8344181776046753,0.11017158627510071
1685734981730928400,2.536928466796875,9.55617904663086,1.8894082307815552,0.09162130951881409
1685734981750928400,2.556928466796875,9.536277770996094,1.8037724494934082,0.0514274537563324
1685734981770928400,2.576928466796875,9.539313316345215,1.7748790979385376,0.036861129105091095
1685734981790926800,2.5969267578125,9.715583801269531,1.7583496570587158,0.16123512387275696
1685734981810928400,2.616928466796875,9.743348121643066,1.8991669416427612,0.3055192828178406
1685734981830928400,2.636928466796875,9.698758125305176,1.9057366847991943,0.3636026382446289
1685734981850928400,2.656928466796875,9.502394676208496,1.9178800582885742,0.3376398980617523
1685734981870928400,2.676928466796875,9.506695747375488,1.853686809539795,0.2940462529659271
1685734981890928400,2.696928466796875,9.635369300842285,1.829926609992981,0.1516391634941101
1685734981910928400,2.716928466796875,9.789928436279297,1.9137141704559326,0.16252797842025757
1685734981930928400,2.736928466796875,9.664128303527832,1.7704930305480957,0.07479485869407654
1685734981950928400,2.756928466796875,9.529813766479492,1.6496433019638062,0.0005937620298936963
1685734981970928400,2.776928466796875,9.458734512329102,1.6638743877410889,0.0472806952893734
1685734981990928400,2.796928466796875,9.783540725708008,1.865380048751831,0.3144640326499939
1685734982010928400,2.816928466796875,9.84953498840332,1.9483343362808228,0.3222978413105011
1685734982030928400,2.836928466796875,9.695808410644531,1.8418402671813965,0.06518932431936264
1685734982050928400,2.856928466796875,9.522774696350098,1.808876872062683,0.0713280588388443
1685734982070928400,2.876928466796875,9.570476531982422,1.9271600246429443,0.29935184121131897
1685734982090928400,2.896928466796875,9.495681762695312,1.8539931774139404,0.13986925780773163
1685734982110928400,2.916928466796875,9.474095344543457,1.71463143825531,-0.05240428447723389
1685734982130928400,2.936928466796875,9.594743728637695,1.7294851541519165,0.08432378619909286
1685734982150928400,2.956928466796875,9.817893981933594,1.8863149881362915,0.34910333156585693
1685734982170928400,2.976928466796875,9.747092247009277,1.9195752143859863,0.3038816452026367
1685734982190928400,2.996928466796875,9.5919189453125,1.7709239721298218,0.06002742424607277
1685734982210926800,3.0169267578125,9.553812026977539,1.6873949766159058,-0.10803595930337906
1685734982230928400,3.036928466796875,9.732660293579102,1.5622069835662842,-0.14402560889720917
1685734982250928400,3.056928466796875,9.74166202545166,1.7243328094482422,-0.008925584144890308
1685734982270928400,3.076928466796875,9.715986251831055,1.8419455289840698,0.19097110629081726
1685734982290928400,3.096928466796875,9.625782012939453,1.8364198207855225,0.19826863706111908
1685734982310928400,3.116928466796875,9.51614761352539,1.884753942489624,0.2048766314983368
1685734982330928400,3.136928466796875,9.512651443481445,1.8636561632156372,0.15728947520256042
1685734982350926800,3.1569267578125,9.690790176391602,1.7896658182144165,0.17825309932231903
1685734982370928400,3.176928466796875,9.660431861877441,1.766911268234253,0.1242973804473877
1685734982390926800,3.1969267578125,9.6741361618042,1.6166702508926392,-0.11259452253580093
1685734982410928400,3.216928466796875,9.629585266113281,1.6209224462509155,-0.05243301764130592
1685734982430928400,3.236928466796875,9.723733901977539,1.8147952556610107,0.22732466459274292
1685734982450928400,3.256928466796875,9.639631271362305,1.927543044090271,0.3073388934135437
1685734982470928400,3.276928466796875,9.593825340270996,1.9006130695343018,0.2939792573451996
1685734982490928400,3.296928466796875,9.53463077545166,1.8924823999404907,0.26969245076179504
1685734982510926800,3.3169267578125,9.592321395874023,1.7113466262817383,0.007010222412645817
1685734982530928400,3.336928466796875,9.581872940063477,1.6234890222549438,-0.1618671864271164
1685734982550928400,3.356928466796875,9.752435684204102,1.517713189125061,-0.14460019767284393
1685734982570928400,3.376928466796875,9.824060440063477,1.702526330947876,0.07954496145248413
1685734982590928400,3.396928466796875,9.734077453613281,1.8365346193313599,0.23242910206317902
1685734982610928400,3.416928466796875,9.545337677001953,1.874698281288147,0.21579419076442719
1685734982630928400,3.436928466796875,9.570121765136719,1.8825321197509766,0.27431803941726685
1685734982650928400,3.456928466796875,9.556676864624023,1.798284888267517,0.16181930899620056
1685734982670928400,3.476928466796875,9.609683990478516,1.7467137575149536,0.0971662849187851
1685734982690928400,3.496928466796875,9.7474365234375,1.6301449537277222,-0.0059280432760715485
1685734982710928400,3.516928466796875,9.744956016540527,1.6716315746307373,0.02386540174484253
1685734982730928400,3.536928466796875,9.560746192932129,1.819392204284668,0.09190861880779266
1685734982750928400,3.556928466796875,9.624738693237305,1.8347246646881104,0.19077956676483154
1685734982770928400,3.576928466796875,9.73228645324707,1.8592795133590698,0.2524925172328949
1685734982790928400,3.596928466796875,9.638519287109375,1.8570960760116577,0.2891238033771515
1685734982810928400,3.616928466796875,9.516568183898926,1.7637988328933716,0.08770439773797989
1685734982830926800,3.6369267578125,9.675572395324707,1.6263620853424072,-0.054961297661066055
1685734982850928400,3.656928466796875,9.723897933959961,1.7369358539581299,0.00494163203984499
1685734982870928400,3.676928466796875,9.67009449005127,1.6849913597106934,-0.09057743847370148
1685734982890928400,3.696928466796875,9.562116622924805,1.6815435886383057,0.008178592659533024
1685734982910928400,3.716928466796875,9.650615692138672,1.7552083730697632,0.18203595280647278
1685734982930928400,3.736928466796875,9.566904067993164,1.8823692798614502,0.2775837481021881
1685734982950928400,3.756928466796875,9.684843063354492,1.8946658372879028,0.22278526425361633
1685734982970928400,3.776928466796875,9.70530891418457,1.8429415225982666,0.18765753507614136
1685734982990928400,3.796928466796875,9.791988372802734,1.7396652698516846,0.0744117870926857
1685734983010928400,3.816928466796875,9.58445930480957,1.701932668685913,-0.04198472201824188
1685734983030928400,3.836928466796875,9.587858200073242,1.5908992290496826,-0.15502934157848358
1685734983050928400,3.856928466796875,9.578262329101562,1.7277995347976685,0.058351483196020126
1685734983070926800,3.8769267578125,9.62010383605957,1.8250041007995605,0.18004396557807922
1685734983090928400,3.896928466796875,9.564931869506836,1.9574897289276123,0.28753405809402466
1685734983110928400,3.916928466796875,9.719644546508789,1.865734338760376,0.2695775330066681
1685734983130928400,3.936928466796875,9.829577445983887,1.8610225915908813,0.2748256325721741
1685734983150928400,3.956928466796875,9.756342887878418,1.6820799112319946,-0.0494067445397377
1685734983170928400,3.976928466796875,9.540050506591797,1.5476311445236206,-0.2685815393924713
1685734983190928400,3.996928466796875,9.593039512634277,1.642767071723938,-0.0771220251917839
1685734983210928400,4.016928466796875,9.64414119720459,1.857258915901184,0.1620970368385315
1685734983230928400,4.036928466796875,9.659981727600098,1.8835759162902832,0.20491492748260498
1685734983250928400,4.056928466796875,9.604656219482422,1.836256980895996,0.23406673967838287
1685734983270928400,4.076928466796875,9.681711196899414,1.823079228401184,0.23857741057872772
1685734983290928400,4.096928466796875,9.665420532226562,1.7461296319961548,0.07481402158737183
1685734983310928400,4.116928466796875,9.649035453796387,1.7134056091308594,-0.015485696494579315
1685734983330928400,4.136928466796875,9.638290405273438,1.681754231452942,-0.024095244705677032
1685734983350928400,4.156928466796875,9.598392486572266,1.7436587810516357,0.02040817402303219
1685734983370928400,4.176928466796875,9.572784423828125,1.7318122386932373,-0.033518824726343155
1685734983390926800,4.1969267578125,9.714367866516113,1.7705600261688232,0.1579694151878357
1685734983410928400,4.216928466796875,9.723294258117676,1.8780118227005005,0.26542121171951294
1685734983430928400,4.236928466796875,9.698566436767578,1.8514457941055298,0.20150558650493622
1685734983450928400,4.256928466796875,9.585224151611328,1.803264856338501,0.08161354809999466
1685734983470928400,4.276928466796875,9.6954345703125,1.7170352935791016,0.03775177523493767
1685734983490928400,4.296928466796875,9.663256645202637,1.621994972229004,-0.13679510354995728
1685734983510928400,4.316928466796875,9.585540771484375,1.6364847421646118,-0.14053964614868164
1685734983530928400,4.336928466796875,9.606236457824707,1.7894837856292725,0.09341216832399368
1685734983550928400,4.356928466796875,9.772221565246582,1.913896083831787,0.2869402766227722
1685734983570928400,4.376928466796875,9.567086219787598,1.9119998216629028,0.24226447939872742
1685734983590928400,4.396928466796875,9.606035232543945,1.7845039367675781,0.08762778341770172
1685734983610928400,4.416928466796875,9.730572700500488,1.7245051860809326,0.10312305390834808
1685734983630928400,4.436928466796875,9.782430648803711,1.6698981523513794,-0.026202142238616943
1685734983650928400,4.456928466796875,9.548555374145508,1.6602638959884644,-0.12412498891353607
1685734983670928400,4.476928466796875,9.608487129211426,1.728335976600647,-0.024143129587173462
1685734983690928400,4.496928466796875,9.599111557006836,1.853954792022705,0.1774103343486786
1685734983710928400,4.516928466796875,9.650232315063477,1.9243061542510986,0.2236088514328003
1685734983730928400,4.536928466796875,9.647359848022461,1.8754643201828003,0.17185580730438232
1685734983750928400,4.556928466796875,9.60281753540039,1.7974804639816284,0.18737980723381042
1685734983770928400,4.576928466796875,9.607769012451172,1.857067346572876,0.16926048696041107
1685734983790928400,4.596928466796875,9.692246437072754,1.7519522905349731,0.02637452445924282
1685734983810928400,4.616928466796875,9.64818286895752,1.6067678928375244,-0.11695196479558945
1685734983830928400,4.636928466796875,9.61241340637207,1.5970474481582642,-0.08942822366952896
1685734983850928400,4.656928466796875,9.548439979553223,1.6895402669906616,-0.05086242035031319
1685734983870928400,4.676928466796875,9.655020713806152,1.8020964860916138,0.08845138549804688
1685734983890928400,4.696928466796875,9.722728729248047,1.938910722732544,0.29809725284576416
1685734983910928400,4.716928466796875,9.759398460388184,2.006800651550293,0.35457170009613037
1685734983930928400,4.736928466796875,9.594955444335938,1.9057366847991943,0.12859736382961273
1685734983950928400,4.756928466796875,9.597723007202148,1.7185101509094238,0.03513730317354202
1685734983970928400,4.776928466796875,9.594686508178711,1.6184611320495605,-0.0809144452214241
1685734983990928400,4.796928466796875,9.654426574707031,1.64943265914917,-0.1248815581202507
1685734984010928400,4.816928466796875,9.566492080688477,1.6882377862930298,-0.04403415694832802
1685734984030928400,4.836928466796875,9.690503120422363,1.8857307434082031,0.2148365080356598
1685734984050928400,4.856928466796875,9.709186553955078,1.9126511812210083,0.29788658022880554
1685734984070928400,4.876928466796875,9.699064254760742,1.933384895324707,0.3065727651119232
1685734984090928400,4.896928466796875,9.660852432250977,1.784666657447815,0.18620185554027557
1685734984110928400,4.916928466796875,9.64458179473877,1.6691129207611084,-0.010362105444073677
1685734984130928400,4.936928466796875,9.543919563293457,1.6392619609832764,-0.20649510622024536
1685734984150987800,4.95698779296875,9.593345642089844,1.6112881898880005,-0.1397160291671753
1685734984170928400,4.976928466796875,9.709349632263184,1.8405282497406006,0.11224975436925888
1685734984190928400,4.996928466796875,9.733636856079102,1.8588199615478516,0.21059398353099823
1685734984210928400,5.016928466796875,9.586872100830078,1.9546070098876953,0.30690792202949524
1685734984230928400,5.036928466796875,9.680830001831055,1.8261629343032837,0.25125712156295776
1685734984250928400,5.056928466796875,9.631002426147461,1.713894009590149,0.07500555366277695
1685734984270928400,5.076928466796875,9.63308048248291,1.6570748090744019,-0.10622594505548477
1685734984290928400,5.096928466796875,9.58751392364502,1.6041055917739868,-0.12516885995864868
1685734984310928400,5.116928466796875,9.706677436828613,1.6640756130218506,-0.02018790878355503
1685734984330928400,5.136928466796875,9.583520889282227,1.8458242416381836,0.1718941032886505
1685734984350928400,5.156928466796875,9.671703338623047,1.8707047700881958,0.21451088786125183
1685734984370928400,5.176928466796875,9.672345161437988,1.86833918094635,0.2935578525066376
1685734984390926800,5.1969267578125,9.762367248535156,1.8297351598739624,0.26906996965408325
1685734984410928400,5.216928466796875,9.608726501464844,1.7955842018127441,0.10490434616804123
1685734984430928400,5.236928466796875,9.64014720916748,1.6780672073364258,-0.030980970710515976
1685734984450928400,5.256928466796875,9.64299201965332,1.6122937202453613,-0.0783095508813858
1685734984470928400,5.276928466796875,9.601265907287598,1.6924898624420166,-0.07454586774110794
1685734984490928400,5.296928466796875,9.55272102355957,1.755007266998291,-0.020705057308077812
1685734984510928400,5.316928466796875,9.738846778869629,1.8342649936676025,0.22612756490707397
1685734984530928400,5.336928466796875,9.71183967590332,1.97633695602417,0.45977291464805603
1685734984550928400,5.356928466796875,9.721923828125,1.8846293687820435,0.29758012294769287
1685734984570928400,5.376928466796875,9.566061973571777,1.6689980030059814,0.03328897804021835
1685734984590928400,5.396928466796875,9.549091339111328,1.6921546459197998,0.04509718343615532
1685734984610928400,5.416928466796875,9.58804988861084,1.7066826820373535,0.021250935271382332
1685734984630928400,5.436928466796875,9.684000015258789,1.661595106124878,-0.04257848486304283
1685734984650928400,5.456928466796875,9.672689437866211,1.6754910945892334,-0.014460978098213673
1685734984670928400,5.476928466796875,9.831233024597168,1.7512531280517578,0.1624705195426941
1685734984690928400,5.496928466796875,9.743337631225586,1.9424924850463867,0.2892674505710602
1685734984710928400,5.516928466796875,9.569729804992676,1.952643871307373,0.33875080943107605
1685734984730928400,5.536928466796875,9.41590690612793,1.7893688678741455,0.1694137156009674
1685734984750928400,5.556928466796875,9.561589241027832,1.7015687227249146,0.020963631570339203
1685734984770928400,5.576928466796875,9.751775741577148,1.6030329465866089,-0.1326962262392044
1685734984790928400,5.596928466796875,9.78685474395752,1.6233261823654175,-0.02445916458964348
1685734984810928400,5.616928466796875,9.742140769958496,1.6833152770996094,0.09124781936407089
1685734984830928400,5.636928466796875,9.568312644958496,1.7174087762832642,0.09923487156629562
1685734984850928400,5.656928466796875,9.524392127990723,1.7600351572036743,0.12177868187427521
1685734984870928400,5.676928466796875,9.763009071350098,1.9040607213974,0.3545525372028351
1685734984890928400,5.696928466796875,9.733454704284668,1.9580260515213013,0.37361037731170654
1685734984910928400,5.716928466796875,9.633481979370117,1.7696694135665894,0.04916732758283615
1685734984930928400,5.736928466796875,9.519805908203125,1.560914158821106,-0.1306946873664856
1685734984950928400,5.756928466796875,9.677526473999023,1.5709985494613647,-0.05951027572154999
1685734984970928400,5.776928466796875,9.636106491088867,1.7262673377990723,0.060534995049238205
1685734984990928400,5.796928466796875,9.634928703308105,1.8100547790527344,0.17679741978645325
1685734985010928400,5.816928466796875,9.624375343322754,1.8665004968643188,0.24262839555740356
1685734985030928400,5.836928466796875,9.68884563446045,1.810782551765442,0.21510465443134308
1685734985050928400,5.856928466796875,9.641910552978516,1.8085895776748657,0.15124650299549103
1685734985070928400,5.876928466796875,9.73560905456543,1.6691607236862183,0.0445513054728508
1685734985090928400,5.896928466796875,9.635981559753418,1.6481492519378662,0.04209006577730179
1685734985110928400,5.916928466796875,9.587762832641602,1.7407474517822266,0.07126101851463318
1685734985130928400,5.936928466796875,9.577669143676758,1.8263641595840454,0.15051867067813873
1685734985150928400,5.956928466796875,9.722211837768555,1.760418176651001,0.15489527583122253
1685734985170928400,5.976928466796875,9.645779609680176,1.8633784055709839,0.2660819888114929
1685734985190928400,5.996928466796875,9.739344596862793,1.817476749420166,0.2210039645433426
1685734985210928400,6.016928466796875,9.726731300354004,1.7523449659347534,0.2006053775548935
1685734985230928400,6.036928466796875,9.69930362701416,1.6844836473464966,0.12875059247016907
1685734985250928400,6.056928466796875,9.547089576721191,1.6505722999572754,-0.05112099274992943
1685734985270928400,6.076928466796875,9.508907318115234,1.623565673828125,-0.042712558060884476
1685734985290928400,6.096928466796875,9.617278099060059,1.777522325515747,0.16800591349601746
1685734985310928400,6.116928466796875,9.728857040405273,1.8775616884231567,0.2803897261619568
1685734985330928400,6.136928466796875,9.615697860717773,1.7963311672210693,0.1555560827255249
1685734985350928400,6.156928466796875,9.73266887664795,1.7056388854980469,0.12728534638881683
1685734985370928400,6.176928466796875,9.758238792419434,1.6782395839691162,0.12850159406661987
1685734985390926800,6.1969267578125,9.690512657165527,1.7718337774276733,0.12532208859920502
1685734985410928400,6.216928466796875,9.585454940795898,1.6867151260375977,-0.02116474322974682
1685734985430928400,6.236928466796875,9.553851127624512,1.7136449813842773,0.059749700129032135
1685734985450928400,6.256928466796875,9.52346420288086,1.8080532550811768,0.1950412392616272
1685734985470928400,6.276928466796875,9.705490112304688,1.7936688661575317,0.18694885075092316
1685734985490928400,6.296928466796875,9.759206771850586,1.7388895750045776,0.20989488065242767
1685734985510928400,6.316928466796875,9.743156433105469,1.8448569774627686,0.35369065403938293
1685734985530926800,6.3369267578125,9.60561466217041,1.789177417755127,0.14839261770248413
1685734985550928400,6.356928466796875,9.578195571899414,1.6651768684387207,0.01188481692224741
1685734985570928400,6.376928466796875,9.5535249710083,1.6434279680252075,0.003897760296240449
1685734985590926800,6.3969267578125,9.654675483703613,1.6474405527114868,-0.009844956919550896
1685734985610928400,6.416928466796875,9.676280975341797,1.784417748451233,0.0847068578004837
1685734985630928400,6.436928466796875,9.7930326461792,1.8737214803695679,0.3504153788089752
1685734985650926800,6.4569267578125,9.757099151611328,1.9503933191299438,0.4550228416919708
1685734985670928400,6.476928466796875,9.65084457397461,1.819947600364685,0.23274512588977814
1685734985690928400,6.496928466796875,9.332541465759277,1.6747344732284546,0.009615113958716393
1685734985710928400,6.516928466796875,9.603172302246094,1.6312079429626465,0.03424666076898575
1685734985730928400,6.536928466796875,9.720736503601074,1.7108582258224487,0.0618470199406147
1685734985750928400,6.556928466796875,9.781243324279785,1.721009612083435,0.006454767659306526
1685734985770928400,6.576928466796875,9.650136947631836,1.7103219032287598,0.09200438112020493
1685734985790928400,6.596928466796875,9.665822982788086,1.7808934450149536,0.24659320712089539
1685734985810926800,6.6169267578125,9.550853729248047,1.7867351770401,0.16734512150287628
1685734985830928400,6.636928466796875,9.589524269104004,1.8683679103851318,0.25873661041259766
1685734985850928400,6.656928466796875,9.70682144165039,1.8743822574615479,0.3182947337627411
1685734985870928400,6.676928466796875,9.644169807434082,1.8772839307785034,0.20967461168766022
1685734985890928400,6.696928466796875,9.57947826385498,1.6612598896026611,-0.04487691447138786
1685734985910928400,6.716928466796875,9.703651428222656,1.5853062868118286,-0.04836287349462509
1685734985930928400,6.736928466796875,9.745176315307617,1.6468851566314697,0.045259989798069
1685734985950928400,6.756928466796875,9.618168830871582,1.820062518119812,0.18198804557323456
1685734985970928400,6.776928466796875,9.554655075073242,1.8546826839447021,0.25689783692359924
1685734985990928400,6.796928466796875,9.695328712463379,1.8658013343811035,0.3340294361114502
1685734986010928400,6.816928466796875,9.636815071105957,1.8764891624450684,0.27967149019241333
1685734986030928400,6.836928466796875,9.672728538513184,1.7525078058242798,0.08773312717676163
1685734986050928400,6.856928466796875,9.657424926757812,1.5682978630065918,-0.058207832276821136
1685734986070928400,6.876928466796875,9.731893539428711,1.6495282649993896,0.049397170543670654
1685734986090928400,6.896928466796875,9.641373634338379,1.7503050565719604,0.06071695312857628
1685734986110928400,6.916928466796875,9.63028335571289,1.827398419380188,0.18822255730628967
1685734986130928400,6.936928466796875,9.628454208374023,1.8582741022109985,0.34258154034614563
1685734986150928400,6.956928466796875,9.65934944152832,1.9557658433914185,0.4204026758670807
1685734986170928400,6.976928466796875,9.614252090454102,1.7543082237243652,0.09715671092271805
1685734986190928400,6.996928466796875,9.71979808807373,1.594030737876892,-0.054089806973934174
1685734986210928400,7.016928466796875,9.606792449951172,1.5875568389892578,-0.00019153613538946956
1685734986230928400,7.036928466796875,9.667834281921387,1.6696971654891968,0.010448296554386616
1685734986250928400,7.056928466796875,9.61497974395752,1.7050930261611938,0.0651605874300003
1685734986270928400,7.076928466796875,9.713908195495605,1.817534327507019,0.2748064696788788
1685734986290928400,7.096928466796875,9.657377243041992,1.8826183080673218,0.3410492539405823
1685734986310928400,7.116928466796875,9.674548149108887,1.8659354448318481,0.2850440740585327
1685734986330928400,7.136928466796875,9.615114212036133,1.7597765922546387,0.1490342766046524
1685734986350928400,7.156928466796875,9.684660911560059,1.7288818359375,0.09577763825654984
1685734986370928400,7.176928466796875,9.540654182434082,1.6465595960617065,-0.049828123301267624
1685734986390926800,7.1969267578125,9.655326843261719,1.6145730018615723,-0.07541734725236893
1685734986410928400,7.216928466796875,9.732650756835938,1.7028329372406006,0.13584700226783752
1685734986430928400,7.236928466796875,9.75015640258789,1.8423861265182495,0.2988825738430023
1685734986450928400,7.256928466796875,9.608994483947754,1.8684637546539307,0.3014395833015442
1685734986470928400,7.276928466796875,9.658869743347168,1.8676306009292603,0.35898661613464355
1685734986490928400,7.296928466796875,9.645060539245605,1.8376168012619019,0.25469517707824707
1685734986510928400,7.316928466796875,9.624212265014648,1.6998544931411743,0.03128742799162865
1685734986530928400,7.336928466796875,9.57529354095459,1.5853829383850098,-0.11927913129329681
1685734986550928400,7.356928466796875,9.751631736755371,1.5967793464660645,0.012363658286631107
1685734986570928400,7.376928466796875,9.711484909057617,1.7900010347366333,0.18759047985076904
1685734986590928400,7.396928466796875,9.68490982055664,1.7782405614852905,0.19815371930599213
1685734986610928400,7.416928466796875,9.622698783874512,1.8326847553253174,0.2748064696788788
1685734986630926800,7.4369267578125,9.753700256347656,1.8711163997650146,0.3665810227394104
1685734986650928400,7.456928466796875,9.588729858398438,1.7673612833023071,0.08604760468006134
1685734986670928400,7.476928466796875,9.399741172790527,1.6243221759796143,-0.08282022923231125
1685734986690928400,7.496928466796875,9.55561351776123,1.6769659519195557,0.02059013396501541
1685734986710928400,7.516928466796875,9.782670021057129,1.7355759143829346,0.10032662749290466
1685734986730928400,7.536928466796875,9.752933502197266,1.7442620992660522,0.05951985716819763
1685734986750928400,7.556928466796875,9.71289348602295,1.7117297649383545,0.17341682314872742
1685734986770928400,7.576928466796875,9.584851264953613,1.7802422046661377,0.2718663811683655
1685734986790928400,7.596928466796875,9.551609992980957,1.7228004932403564,0.17768807709217072
1685734986810928400,7.616928466796875,9.562182426452637,1.841849684715271,0.21238483488559723
1685734986830928400,7.636928466796875,9.725630760192871,1.8259810209274292,0.2306765466928482
1685734986850928400,7.656928466796875,9.633367538452148,1.7657908201217651,0.04246356338262558
1685734986870928400,7.676928466796875,9.613648414611816,1.641129493713379,-0.03694731742143631
1685734986890928400,7.696928466796875,9.688682556152344,1.6358717679977417,0.03146938607096672
1685734986910928400,7.716928466796875,9.782602310180664,1.738391637802124,0.21578460931777954
1685734986930928400,7.736928466796875,9.577831268310547,1.837386965751648,0.18450675904750824
1685734986950928400,7.756928466796875,9.52263069152832,1.8320335149765015,0.19644904136657715
1685734986970928400,7.776928466796875,9.582754135131836,1.817898154258728,0.29604780673980713
1685734986990928400,7.796928466796875,9.743941307067871,1.8177353143692017,0.22966140508651733
1685734987010928400,7.816928466796875,9.62539005279541,1.6550158262252808,-0.032474953681230545
1685734987030928400,7.836928466796875,9.724079132080078,1.5998725891113281,-0.028548462316393852
1685734987050928400,7.856928466796875,9.760604858398438,1.6590955257415771,0.07151959091424942
1685734987070928400,7.876928466796875,9.696727752685547,1.7911789417266846,0.17851167917251587
1685734987090928400,7.896928466796875,9.644763946533203,1.82781982421875,0.15264472365379333
1685734987110928400,7.916928466796875,9.663074493408203,1.881200909614563,0.3944016396999359
1685734987130928400,7.936928466796875,9.523406028747559,1.8714038133621216,0.30392953753471375
1685734987150928400,7.956928466796875,9.59693717956543,1.6929782629013062,0.027006596326828003
1685734987170928400,7.976928466796875,9.669836044311523,1.5218600034713745,-0.10468407720327377
1685734987190928400,7.996928466796875,9.82336139678955,1.5730575323104858,-0.0267767533659935
1685734987210928400,8.016928466796875,9.660709381103516,1.7122467756271362,0.07620265334844589
1685734987230928400,8.036928466796875,9.632755279541016,1.8048067092895508,0.19331742823123932
1685734987250928400,8.056928466796874,9.624488830566406,1.842319130897522,0.3777667284011841
1685734987270928400,8.076928466796875,9.690885543823242,1.9519447088241577,0.42145612835884094
1685734987290928400,8.096928466796875,9.571893692016602,1.7488206624984741,0.1707448810338974
1685734987310928400,8.116928466796875,9.73659610748291,1.622780442237854,-0.011836932972073555
1685734987330928400,8.136928466796874,9.645913124084473,1.5871738195419312,-0.04267425090074539
1685734987350928400,8.156928466796876,9.67271900177002,1.5916365385055542,-0.09615113586187363
1685734987370928400,8.176928466796875,9.669060707092285,1.678459882736206,0.06116706505417824
1685734987390926800,8.1969267578125,9.679758071899414,1.8624112606048584,0.33704614639282227
1685734987410928400,8.216928466796874,9.61316967010498,1.922553539276123,0.3868550956249237
1685734987430928400,8.236928466796876,9.563035011291504,1.8662036657333374,0.289229154586792
1685734987450928400,8.256928466796875,9.61672306060791,1.6955162286758423,0.15627433359622955
1685734987470926800,8.2769267578125,9.744573593139648,1.659737229347229,0.09205226600170135
1685734987490928400,8.296928466796874,9.57938289642334,1.6434853076934814,-0.041620802134275436
1685734987510928400,8.316928466796876,9.656610488891602,1.5542677640914917,-0.09720458835363388
1685734987530928400,8.336928466796875,9.692302703857422,1.7193049192428589,0.14449486136436462
1685734987550928400,8.356928466796875,9.704791069030762,1.8772361278533936,0.31718385219573975
1685734987570928400,8.376928466796874,9.618609428405762,1.8672761917114258,0.2815868556499481
1685734987590926800,8.3969267578125,9.691163063049316,1.8093557357788086,0.2878788113594055
1685734987610928400,8.416928466796875,9.679116249084473,1.8150538206100464,0.23195025324821472
1685734987630928400,8.436928466796875,9.539677619934082,1.6903830766677856,0.0071730283088982105
1685734987650928400,8.456928466796874,9.482781410217285,1.5874035358428955,-0.1477222442626953
1685734987670928400,8.476928466796876,9.693280220031738,1.551835298538208,-0.08498457819223404
1685734987690928400,8.496928466796875,9.820135116577148,1.771661400794983,0.17859786748886108
1685734987710928400,8.516928466796875,9.751296043395996,1.8625739812850952,0.323772668838501
1685734987730928400,8.536928466796875,9.67689323425293,1.7752430438995361,0.4418930113315582
1685734987750928400,8.556928466796874,9.56871509552002,1.629215955734253,0.11862790584564209
1685734987770928400,8.576928466796875,9.275090217590332,1.8084075450897217,0.08808746933937073
1685734987790928400,8.596928466796875,9.575629234313965,1.8130714893341064,0.08818323165178299
1685734987810928400,8.616928466796875,9.751564025878906,1.806827425956726,0.13822203874588013
1685734987830928400,8.636928466796874,9.77453899383545,1.7122851610183716,0.0699106901884079
1685734987850928400,8.656928466796876,9.658084869384766,1.6829897165298462,0.02552218921482563
1685734987870928400,8.676928466796875,9.735485076904297,1.7275985479354858,0.15977944433689117
1685734987890928400,8.696928466796875,9.681117057800293,1.9022603034973145,0.3574926257133484
1685734987910928400,8.716928466796874,9.536057472229004,1.9034574031829834,0.29113492369651794
1685734987930928400,8.736928466796876,9.439197540283203,1.7959002256393433,0.1679101586341858
1685734987950928400,8.756928466796875,9.711915969848633,1.689760446548462,0.12812809646129608
1685734987970928400,8.776928466796875,9.715785026550293,1.6774351596832275,0.004127603489905596
1685734987990928400,8.796928466796874,9.709693908691406,1.6475555896759033,-0.06264188885688782
1685734988010928400,8.816928466796876,9.715871810913086,1.6397216320037842,0.048966214060783386
1685734988030928400,8.836928466796875,9.753728866577148,1.8202061653137207,0.2687635123729706
1685734988050928400,8.856928466796875,9.566186904907227,1.944886565208435,0.3164847493171692
1685734988070928400,8.876928466796874,9.583405494689941,1.8836333751678467,0.28465142846107483
1685734988090926800,8.8969267578125,9.575993537902832,1.8722466230392456,0.3281588852405548
1685734988110928400,8.916928466796875,9.629852294921875,1.801282525062561,0.16410815715789795
1685734988130928400,8.936928466796875,9.632524490356445,1.5616803169250488,-0.2108812928199768
1685734988150928400,8.956928466796874,9.793548583984375,1.4381873607635498,-0.21066102385520935
1685734988170928400,8.976928466796876,9.825919151306152,1.621286392211914,0.01098459679633379
1685734988190928400,8.996928466796875,9.668035507202148,1.837329626083374,0.22014206647872925
1685734988210926800,9.0169267578125,9.515073776245117,1.9623833894729614,0.3882341682910919
1685734988230928400,9.036928466796875,9.592781066894531,1.9650458097457886,0.4624065160751343
1685734988250928400,9.056928466796874,9.451906204223633,1.876038908958435,0.28957390785217285
1685734988270928400,9.076928466796875,9.569029808044434,1.6490304470062256,-0.024229319766163826
1685734988290928400,9.096928466796875,9.677555084228516,1.4843188524246216,-0.1745181381702423
1685734988310928400,9.116928466796875,9.871820449829102,1.5993746519088745,-0.034112587571144104
1685734988330928400,9.136928466796874,9.770105361938477,1.831870675086975,0.15700216591358185
1685734988350928400,9.156928466796876,9.678598403930664,1.8224854469299316,0.23146183788776398
1685734988370928400,9.176928466796875,9.520734786987305,1.8953075408935547,0.3289633095264435
1685734988390926800,9.1969267578125,9.563868522644043,1.909557819366455,0.36299929022789
1685734988410928400,9.216928466796874,9.557308197021484,1.7885836362838745,0.2066291868686676
1685734988430928400,9.236928466796876,9.797351837158203,1.6066912412643433,0.04518337547779083
1685734988450928400,9.256928466796875,9.720602989196777,1.595993995666504,-0.005008670035749674
1685734988470928400,9.276928466796875,9.737582206726074,1.6358623504638672,-0.03685155138373375
1685734988490928400,9.296928466796874,9.610766410827637,1.7429789304733276,0.08638279885053635
1685734988510928400,9.316928466796876,9.706161499023438,1.848591923713684,0.31037473678588867
1685734988530928400,9.336928466796875,9.576605796813965,1.9436033964157104,0.36844849586486816
1685734988550928400,9.356928466796875,9.633827209472656,1.8077467679977417,0.24029165506362915
1685734988570928400,9.376928466796874,9.640387535095215,1.7242274284362793,0.16617675125598907
1685734988590928400,9.396928466796876,9.762950897216797,1.6734511852264404,0.05561251938343048
1685734988610928400,9.416928466796875,9.56335163116455,1.632338047027588,-0.03466803953051567
1685734988630928400,9.436928466796875,9.511080741882324,1.6506967544555664,0.050728343427181244
1685734988650928400,9.456928466796874,9.652665138244629,1.7495388984680176,0.21182939410209656
1685734988670928400,9.476928466796876,9.77525806427002,1.8832981586456299,0.2969384789466858
1685734988690928400,9.496928466796875,9.63036060333252,1.8648916482925415,0.2995433509349823
1685734988710928400,9.516928466796875,9.683971405029297,1.746225357055664,0.27913519740104675
1685734988730928400,9.536928466796875,9.594494819641113,1.6799538135528564,0.10075758397579193
1685734988750928400,9.556928466796874,9.561895370483398,1.6699557304382324,0.003687070682644844
1685734988770928400,9.576928466796875,9.75490665435791,1.6580899953842163,-0.02426762692630291
1685734988790928400,9.596928466796875,9.797082901000977,1.7473938465118408,0.17587804794311523
1685734988810928400,9.616928466796875,9.63819408416748,1.8807220458984375,0.2903113067150116
1685734988830928400,9.636928466796874,9.524086952209473,1.8100451231002808,0.20739533007144928
1685734988850928400,9.656928466796876,9.510602951049805,1.794195532798767,0.2527031898498535
1685734988870928400,9.676928466796875,9.670525550842285,1.7577366828918457,0.2399469017982483
1685734988890928400,9.696928466796875,9.564098358154297,1.7106858491897583,0.0811634361743927
1685734988910928400,9.716928466796874,9.643566131591797,1.6000162363052368,-0.05765237659215927
1685734988930928400,9.736928466796876,9.718811988830566,1.6136823892593384,0.002413355279713869
1685734988950928400,9.756928466796875,9.705575942993164,1.742538332939148,0.17640478909015656
1685734988970928400,9.776928466796875,9.662117004394531,1.7704930305480957,0.1330697387456894
1685734988990928400,9.796928466796874,9.664386749267578,1.7425670623779297,0.20454144477844238
1685734989010928400,9.816928466796876,9.641210556030273,1.844071626663208,0.31222304701805115
1685734989030928400,9.836928466796875,9.644763946533203,1.8545485734939575,0.22701820731163025
1685734989050928400,9.856928466796875,9.504789352416992,1.7169969081878662,0.07363606989383698
1685734989070928400,9.876928466796874,9.626108169555664,1.6393290758132935,0.070265032351017
1685734989090928400,9.896928466796876,9.662912368774414,1.6486952304840088,0.0362577885389328
1685734989110928400,9.916928466796875,9.685168266296387,1.6333531141281128,-0.036698322743177414
1685734989130928400,9.936928466796875,9.709273338317871,1.6625720262527466,0.10511502623558044
1685734989150928400,9.956928466796874,9.76162052154541,1.7712877988815308,0.299026221036911
1685734989170928400,9.976928466796876,9.579957962036133,1.844617486000061,0.26465505361557007
1685734989190928400,9.996928466796875,9.598967552185059,1.7373285293579102,0.1748916506767273
1685734989210928400,10.016928466796875,9.593767166137695,1.7281731367111206,0.20730914175510406
1685734989230928400,10.036928466796875,9.737342834472656,1.7038480043411255,0.11780429631471634
1685734989250928400,10.056928466796874,9.607376098632812,1.6521714925765991,-0.10061392933130264
1685734989270928400,10.076928466796875,9.636537551879883,1.5779129266738892,-0.072266586124897
1685734989290928400,10.096928466796875,9.671310424804688,1.7309120893478394,0.14935030043125153
1685734989310928400,10.116928466796875,9.743413925170898,1.7869938611984253,0.22021867334842682
1685734989330928400,10.136928466796874,9.655241012573242,1.7854423522949219,0.24927470088005066
1685734989350928400,10.156928466796876,9.731194496154785,1.746091365814209,0.3056342303752899
1685734989370928400,10.176928466796875,9.591842651367188,1.7876546382904053,0.1887684315443039
1685734989390926800,10.1969267578125,9.56694221496582,1.7171789407730103,0.06009446457028389
1685734989410928400,10.216928466796874,9.612088203430176,1.625969409942627,-0.05012500658631325
1685734989430928400,10.236928466796876,9.7427339553833,1.608577847480774,0.001915361382998526
1685734989450928400,10.256928466796875,9.703057289123535,1.721660852432251,0.07883626967668533
1685734989470928400,10.276928466796875,9.699782371520996,1.7735862731933594,0.2149418443441391
1685734989490928400,10.296928466796874,9.660795211791992,1.8893603086471558,0.3554144501686096
1685734989510928400,10.316928466796876,9.684603691101074,1.85316002368927,0.2726612687110901
1685734989530928400,10.336928466796875,9.500116348266602,1.7038767337799072,0.09225337952375412
1685734989550928400,10.356928466796875,9.563437461853027,1.6167086362838745,0.04445553570985794
1685734989570928400,10.376928466796874,9.700366973876953,1.6402006149291992,0.04580586776137352
1685734989590928400,10.396928466796876,9.779739379882812,1.6447017192840576,0.018397044390439987
1685734989610928400,10.416928466796875,9.667959213256836,1.693734884262085,0.08646898716688156
1685734989630928400,10.436928466796875,9.717930793762207,1.6709516048431396,0.17696981132030487
1685734989650928400,10.456928466796874,9.475234985351562,1.8298883438110352,0.2357809841632843
1685734989670928400,10.476928466796876,9.568723678588867,1.8212692737579346,0.21640710532665253
1685734989690928400,10.496928466796875,9.61884880065918,1.8034756183624268,0.21012473106384277
1685734989710928400,10.516928466796875,9.816293716430664,1.7535995244979858,0.1116081103682518
1685734989730928400,10.536928466796875,9.623905181884766,1.6383140087127686,-0.09346963465213776
1685734989750928400,10.556928466796874,9.664711952209473,1.5378819704055786,-0.14177505671977997
1685734989770928400,10.576928466796875,9.773887634277344,1.6217364072799683,0.06729622185230255
1685734989790928400,10.596928466796875,9.649666786193848,1.8026998043060303,0.20016483962535858
1685734989810928400,10.616928466796875,9.476423263549805,1.8971174955368042,0.2249879091978073
1685734989830928400,10.636928466796874,9.617298126220703,1.8937655687332153,0.3312329947948456
1685734989850928400,10.656928466796876,9.6989107131958,1.8312866687774658,0.31291258335113525
1685734989870928400,10.676928466796875,9.776013374328613,1.6915608644485474,0.11096645891666412
1685734989890928400,10.696928466796875,9.652482032775879,1.5170332193374634,-0.1283196359872818
1685734989910928400,10.716928466796874,9.689937591552734,1.5907171964645386,-0.02696828916668892
1685734989930928400,10.736928466796876,9.621540069580078,1.7305289506912231,0.11489295214414597
1685734989950928400,10.756928466796875,9.522085189819336,1.760600209236145,0.1563030630350113
1685734989970928400,10.776928466796875,9.69650650024414,1.793869972229004,0.2758886516094208
1685734989990928400,10.796928466796874,9.753067970275879,1.8899732828140259,0.3905804753303528
1685734990010928400,10.816928466796876,9.565669059753418,1.7840728759765625,0.12627018988132477
1685734990030928400,10.836928466796875,9.529056549072266,1.625442624092102,-0.07617391645908356
1685734990050928400,10.856928466796875,9.645003318786621,1.5528982877731323,-0.10065224021673203
1685734990070928400,10.876928466796874,9.707147598266602,1.6614611148834229,0.03857537731528282
1685734990090928400,10.896928466796876,9.551361083984375,1.7332488298416138,0.09667786210775375
1685734990110928400,10.916928466796875,9.644332885742188,1.8010812997817993,0.21801601350307465
1685734990130928400,10.936928466796875,9.674711227416992,1.866711139678955,0.3163219392299652
1685734990150928400,10.956928466796874,9.683703422546387,1.7931325435638428,0.2096267193555832
1685734990170928400,10.976928466796876,9.693825721740723,1.650773286819458,0.09346963465213776
1685734990190928400,10.996928466796875,9.792255401611328,1.5894434452056885,0.05424303561449051
1685734990210928400,11.016928466796875,9.561904907226562,1.6601873636245728,0.003246537409722805
1685734990230928400,11.036928466796875,9.53938102722168,1.6792643070220947,-0.029515719041228294
1685734990250928400,11.056928466796874,9.633530616760254,1.6944053173065186,0.16960525512695312
1685734990270928400,11.076928466796875,9.788732528686523,1.8112614154815674,0.31643685698509216
1685734990290928400,11.096928466796875,9.629593849182129,1.8249467611312866,0.2867104411125183
1685734990310928400,11.116928466796875,9.678799629211426,1.7471543550491333,0.22253625094890594
1685734990330928400,11.136928466796874,9.706620216369629,1.7483322620391846,0.25065377354621887
1685734990350928400,11.156928466796876,9.678828239440918,1.7222068309783936,0.12076353281736374
1685734990370928400,11.176928466796875,9.465399742126465,1.5966836214065552,-0.1104205846786499
1685734990390926800,11.1969267578125,9.634114265441895,1.5282763242721558,-0.09436985850334167
1685734990410928400,11.216928466796874,9.774433135986328,1.67521333694458,0.1373409926891327
1685734990430928400,11.236928466796876,9.815288543701172,1.8013685941696167,0.20661962032318115
1685734990450928400,11.256928466796875,9.573780059814453,1.7767179012298584,0.22749704122543335
1685734990470928400,11.276928466796875,9.634047508239746,1.7834504842758179,0.30182263255119324
1685734990490928400,11.296928466796874,9.633031845092773,1.7814010381698608,0.24054065346717834
1685734990510928400,11.316928466796876,9.698030471801758,1.65876042842865,0.01158793643116951
1685734990530928400,11.336928466796875,9.620697021484375,1.5803934335708618,-0.0625557005405426
1685734990550928400,11.356928466796875,9.619107246398926,1.5841474533081055,-0.009528922848403454
1685734990570928400,11.376928466796874,9.438508033752441,1.6169672012329102,-0.02239057421684265
1685734990590928400,11.396928466796876,9.721004486083984,1.7422797679901123,0.18740853667259216
1685734990610928400,11.416928466796875,9.803556442260742,1.934888482093811,0.4856685996055603
1685734990630928400,11.436928466796875,9.803767204284668,1.9561680555343628,0.45623907446861267
1685734990650928400,11.456928466796874,9.592330932617188,1.7974134683609009,0.22398236393928528
1685734990670928400,11.476928466796876,9.625572204589844,1.6216886043548584,0.08014829456806183
1685734990690928400,11.496928466796875,9.584708213806152,1.6132131814956665,0.010812214575707912
1685734990710928400,11.516928466796875,9.617843627929688,1.602036952972412,-0.07657615095376968
1685734990730928400,11.536928466796875,9.532312393188477,1.6623899936676025,-0.027830200269818306
1685734990750928400,11.556928466796874,9.740962982177734,1.804404377937317,0.2099619209766388
1685734990770928400,11.576928466796875,9.765499114990234,1.9554402828216553,0.3883203864097595
1685734990790928400,11.596928466796875,9.727287292480469,1.882828950881958,0.30364224314689636
1685734990810928400,11.616928466796875,9.629076957702637,1.6765637397766113,0.14259864389896393
1685734990830928400,11.636928466796874,9.607701301574707,1.566200613975525,-0.00019153613538946956
1685734990850928400,11.656928466796876,9.578664779663086,1.5717934370040894,-0.1351766139268875
1685734990870928400,11.676928466796875,9.662776947021484,1.6040481328964233,-0.11617624759674072
1685734990890928400,11.696928466796875,9.804399490356445,1.7379605770111084,0.1502217799425125
1685734990910928400,11.716928466796874,9.775334358215332,1.866165280342102,0.32816842198371887
1685734990930928400,11.736928466796876,9.538183212280273,1.828011393547058,0.24144087731838226
1685734990950928400,11.756928466796875,9.526528358459473,1.7615481615066528,0.24154621362686157
1685734990970928400,11.776928466796875,9.4844388961792,1.7718815803527832,0.204503133893013
1685734990990928400,11.796928466796874,9.654857635498047,1.663223147392273,0.018205508589744568
1685734991010928400,11.816928466796876,9.725218772888184,1.4975923299789429,-0.15446430444717407
1685734991030928400,11.836928466796875,9.863852500915527,1.4591796398162842,-0.08704359084367752
1685734991050928400,11.856928466796875,9.771014213562012,1.6724456548690796,0.09244491904973984
1685734991070928400,11.876928466796874,9.673006057739258,1.8193825483322144,0.23205560445785522
1685734991090928400,11.896928466796876,9.625667572021484,1.8936890363693237,0.36971262097358704
1685734991110928400,11.916928466796875,9.618178367614746,1.9322260618209839,0.4353903830051422
1685734991130928400,11.936928466796875,9.46932601928711,1.7853370904922485,0.13893073797225952
1685734991150928400,11.956928466796874,9.532830238342285,1.6302886009216309,-0.02960190922021866
1685734991170928400,11.976928466796876,9.665899276733398,1.5770319700241089,-0.10403285175561905
1685734991190928400,11.996928466796875,9.809091567993164,1.6414072513580322,0.039255332201719284
1685734991210928400,12.016928466796875,9.76547908782959,1.7524598836898804,0.09362286329269409
1685734991230928400,12.036928466796875,9.756860733032227,1.7055336236953735,0.13214077055454254
1685734991250928400,12.056928466796874,9.570026397705078,1.8150922060012817,0.2754577100276947
1685734991270928400,12.076928466796875,9.617192268371582,1.8396662473678589,0.26596707105636597
1685734991290928400,12.096928466796875,9.513571739196777,1.7235571146011353,0.1337592601776123
1685734991310928400,12.116928466796875,9.692131042480469,1.5773383378982544,0.01616564951837063
1685734991330928400,12.136928466796874,9.775017738342285,1.605082392692566,-0.0007374141132459044
1685734991350928400,12.156928466796876,9.740915298461914,1.6577068567276,-0.010917559266090393
1685734991370928400,12.176928466796875,9.667346000671387,1.6318016052246094,0.1020025685429573
1685734991390926800,12.1969267578125,9.674566268920898,1.7419637441635132,0.2586791515350342
1685734991410928400,12.216928466796874,9.552711486816406,1.8140195608139038,0.2896409332752228
1685734991430928400,12.236928466796876,9.717930793762207,1.7860649824142456,0.2513241469860077
1685734991450928400,12.256928466796875,9.687466621398926,1.793946623802185,0.28471848368644714
1685734991470928400,12.276928466796875,9.512240409851074,1.6269844770431519,0.051006071269512177
1685734991490928400,12.296928466796874,9.405247688293457,1.4812159538269043,-0.28923872113227844
1685734991510928400,12.316928466796876,9.676377296447754,1.5010112524032593,-0.15452177822589874
1685734991530928400,12.336928466796875,9.956354141235352,1.8400973081588745,0.3034602701663971
1685734991550928400,12.356928466796875,9.930133819580078,1.9113104343414307,0.3624342679977417
1685734991570928400,12.376928466796874,9.610115051269531,1.856655478477478,0.29336634278297424
1685734991590928400,12.396928466796876,9.53551197052002,1.7546721696853638,0.2750171422958374
1685734991610928400,12.416928466796875,9.498114585876465,1.6829514503479004,0.09697474539279938
1685734991630928400,12.436928466796875,9.483030319213867,1.6478619575500488,-0.027878083288669586
1685734991650928400,12.456928466796874,9.562173843383789,1.6582720279693604,-0.03318363428115845
1685734991670928400,12.476928466796876,9.806821823120117,1.6158850193023682,-0.010726023465394974
1685734991690928400,12.496928466796875,9.78646183013916,1.7468382120132446,0.14552916586399078
1685734991710928400,12.516928466796875,9.827239990234375,1.7072572708129883,0.18163371086120605
1685734991730928400,12.536928466796875,9.73022747039795,1.7513107061386108,0.2755151689052582
1685734991750928400,12.556928466796874,9.654905319213867,1.7777618169784546,0.2769995629787445
1685734991770928400,12.576928466796875,9.521099090576172,1.7619695663452148,0.12209471315145493
1685734991790928400,12.596928466796875,9.575600624084473,1.6453912258148193,0.021413739770650864
1685734991810928400,12.616928466796875,9.59640121459961,1.6481587886810303,-0.014116212725639343
1685734991830928400,12.636928466796874,9.649810791015625,1.6490974426269531,0.008513781242072582
1685734991850928400,12.656928466796876,9.66391658782959,1.6818788051605225,0.06924030929803848
1685734991870928400,12.676928466796875,9.804245948791504,1.7000555992126465,0.19255128502845764
1685734991890928400,12.696928466796875,9.692359924316406,1.8190569877624512,0.38459497690200806
1685734991910928400,12.716928466796874,9.614424705505371,1.7390714883804321,0.2246527373790741
1685734991930928400,12.736928466796876,9.610153198242188,1.6615663766860962,0.13795390725135803
1685734991950928400,12.756928466796875,9.626998901367188,1.682491660118103,0.11806287616491318
1685734991970928400,12.776928466796875,9.592694282531738,1.6638073921203613,-0.014863204210996628
1685734991990928400,12.796928466796874,9.628061294555664,1.6059443950653076,-0.039255332201719284
1685734992010928400,12.816928466796876,9.696277618408203,1.6438014507293701,0.07943003624677658
1685734992030928400,12.836928466796875,9.794889450073242,1.7484376430511475,0.24712949991226196
1685734992050928400,12.856928466796875,9.59742546081543,1.8329147100448608,0.24886289238929749
1685734992070928400,12.876928466796874,9.581863403320312,1.7470297813415527,0.23082977533340454
1685734992090928400,12.896928466796876,9.50889778137207,1.6969527006149292,0.1750161498785019
1685734992110928400,12.916928466796875,9.569701194763184,1.5990586280822754,-0.005075707565993071
1685734992130928400,12.936928466796875,9.686450958251953,1.5629827976226807,-0.04469495639204979
1685734992150928400,12.956928466796874,9.805136680603027,1.5517491102218628,0.0306840892881155
1685734992170928400,12.976928466796876,9.703794479370117,1.7144112586975098,0.153410866856575
1685734992190928400,12.996928466796875,9.679211616516113,1.6896742582321167,0.15883134305477142
1685734992210928400,13.016928466796875,9.609683990478516,1.7450377941131592,0.2853505313396454
1685734992230928400,13.036928466796875,9.704858779907227,1.806827425956726,0.35506969690322876
1685734992250928400,13.056928466796874,9.545988082885742,1.7674285173416138,0.10360189527273178
1685734992270928400,13.076928466796875,9.50404167175293,1.5915886163711548,-0.08735005557537079
1685734992290928400,13.096928466796875,9.566272735595703,1.5642564296722412,-0.05227021127939224
1685734992310928400,13.116928466796875,9.817453384399414,1.6554372310638428,0.04782657325267792
1685734992330928400,13.136928466796874,9.715689659118652,1.689406156539917,0.05038357898592949
1685734992350928400,13.156928466796876,9.696718215942383,1.654498815536499,0.13168108463287354
1685734992370928400,13.176928466796875,9.60854434967041,1.733583927154541,0.24679431319236755
1685734992390926800,13.1969267578125,9.594887733459473,1.7234230041503906,0.18464083969593048
1685734992410928400,13.216928466796874,9.570006370544434,1.738094687461853,0.15351621806621552
1685734992430928400,13.236928466796876,9.690406799316406,1.7227622270584106,0.09188945591449738
1685734992450928400,13.256928466796875,9.635043144226074,1.6794079542160034,0.026010606437921524
1685734992470928400,13.276928466796875,9.656658172607422,1.6696875095367432,0.07082048803567886
1685734992490928400,13.296928466796874,9.706486701965332,1.6623995304107666,0.08207323402166367
1685734992510928400,13.316928466796876,9.692072868347168,1.724668025970459,0.21234653890132904
1685734992530928400,13.336928466796875,9.604751586914062,1.818616509437561,0.23444023728370667
1685734992550928400,13.356928466796875,9.629986763000488,1.7782694101333618,0.24146004021167755
1685734992570928400,13.376928466796874,9.729327201843262,1.738860845565796,0.1994369924068451
1685734992590928400,13.396928466796876,9.790617942810059,1.6898083686828613,0.15051867067813873
1685734992610928400,13.416928466796875,9.69485092163086,1.6144293546676636,-0.02592441625893116
1685734992630928400,13.436928466796875,9.76073932647705,1.5094674825668335,-0.01909615285694599
1685734992650928400,13.456928466796874,9.650001525878906,1.662974238395691,0.12212344259023666
1685734992670928400,13.476928466796876,9.594676971435547,1.7655225992202759,0.2086307406425476
1685734992690928400,13.496928466796875,9.596908569335938,1.8722848892211914,0.3235715627670288
1685734992710928400,13.516928466796875,9.728072166442871,1.8303958177566528,0.4139000177383423
1685734992730928400,13.536928466796875,9.68192195892334,1.7818224430084229,0.24381591379642487
1685734992750928400,13.556928466796874,9.63493824005127,1.5554457902908325,-0.07885543256998062
1685734992770928400,13.576928466796875,9.679134368896484,1.4760158061981201,-0.1387583464384079
1685734992790928400,13.596928466796875,9.789335250854492,1.5470086336135864,-0.020436905324459076
1685734992810928400,13.616928466796875,9.624547004699707,1.6954491138458252,0.10249099135398865
1685734992830928400,13.636928466796874,9.599177360534668,1.7816978693008423,0.20811358094215393
1685734992850928400,13.656928466796876,9.571885108947754,1.851531982421875,0.31493330001831055
1685734992870928400,13.676928466796875,9.55147647857666,1.8769391775131226,0.3184288442134857
1685734992890928400,13.696928466796875,9.557499885559082,1.7145931720733643,0.03751235082745552
1685734992910928400,13.716928466796874,9.739151954650879,1.5728851556777954,-0.016452953219413757
1685734992930928400,13.736928466796876,9.747513771057129,1.6312940120697021,0.05025908350944519
1685734992950928400,13.756928466796875,9.680312156677246,1.6395779848098755,-0.04333505406975746
1685734992970928400,13.776928466796875,9.559530258178711,1.6919727325439453,0.05739380419254303
1685734992990928400,13.796928466796874,9.711437225341797,1.7997214794158936,0.3084593713283539
1685734993010928400,13.816928466796876,9.698518753051758,1.83323073387146,0.3283791244029999
1685734993030928400,13.836928466796875,9.707568168640137,1.7384586334228516,0.2477807104587555
1685734993050928400,13.856928466796875,9.663803100585938,1.7003620862960815,0.22872287034988403
1685734993070928400,13.876928466796874,9.671215057373047,1.643839716911316,0.06856035441160202
1685734993090928400,13.896928466796876,9.525886535644531,1.5909948348999023,-0.14512692391872406
1685734993110928400,13.916928466796875,9.672470092773438,1.5329020023345947,-0.06205770745873451
1685734993130928400,13.936928466796875,9.826704025268555,1.7130703926086426,0.20589177310466766
1685734993150928400,13.956928466796874,9.733981132507324,1.7887846231460571,0.2957509458065033
1685734993170928400,13.976928466796876,9.485721588134766,1.812362790107727,0.23467007279396057
1685734993190928400,13.996928466796875,9.680235862731934,1.7912554740905762,0.2977046072483063
1685734993210928400,14.016928466796875,9.754945755004883,1.8326560258865356,0.3100874423980713
1685734993230928400,14.036928466796875,9.70845890045166,1.6750601530075073,0.02471773885190487
1685734993250928400,14.056928466796874,9.54716682434082,1.3808223009109497,-0.2429923266172409
1685734993270928400,14.076928466796875,9.582207679748535,1.3624253273010254,-0.18221789598464966
1685734993290928400,14.096928466796875,9.598852157592773,1.6699365377426147,0.08653602749109268
1685734993310928400,14.116928466796875,9.76887035369873,1.876038908958435,0.2784552276134491
1685734993330928400,14.136928466796874,9.737639427185059,1.8720358610153198,0.3318459391593933
1685734993350928400,14.156928466796876,9.719988822937012,1.8589539527893066,0.4221743643283844
1685734993370928400,14.176928466796875,9.592646598815918,1.72738778591156,0.18071433901786804
1685734993390926800,14.1969267578125,9.537225723266602,1.546663761138916,-0.0459686741232872
1685734993410928400,14.216928466796874,9.583319664001465,1.5976412296295166,-0.03990655392408371
1685734993430928400,14.236928466796876,9.63635540008545,1.6701089143753052,0.017994819208979607
1685734993450928400,14.256928466796875,9.545585632324219,1.7085119485855103,0.05104437842965126
1685734993470928400,14.276928466796875,9.80571174621582,1.7632912397384644,0.19394949078559875
1685734993490928400,14.296928466796874,9.730256080627441,1.8332210779190063,0.3459334075450897
1685734993510928400,14.316928466796876,9.658764839172363,1.8775616884231567,0.3268372416496277
1685734993530928400,14.336928466796875,9.560392379760742,1.7313238382339478,0.14568239450454712
1685734993550928400,14.356928466796875,9.702118873596191,1.5536741018295288,-0.03867114707827568
1685734993570928400,14.376928466796874,9.617499351501465,1.6043546199798584,-0.06344634294509888
1685734993590928400,14.396928466796876,9.640454292297363,1.603358507156372,-0.01621353253722191
1685734993610928400,14.416928466796875,9.725630760192871,1.683210015296936,0.19198624789714813
1685734993630928400,14.436928466796875,9.779068946838379,1.7685297727584839,0.30755913257598877
1685734993650928400,14.456928466796874,9.558026313781738,1.8287007808685303,0.3021482527256012
1685734993670928400,14.476928466796876,9.67863655090332,1.7601500749588013,0.260268896818161
1685734993690928400,14.496928466796875,9.714740753173828,1.6481587886810303,0.15166789293289185
1685734993710928400,14.516928466796875,9.559195518493652,1.6315239667892456,0.005027823615819216
1685734993730928400,14.536928466796875,9.506072044372559,1.5730000734329224,-0.140319362282753
1685734993750928400,14.556928466796874,9.767970085144043,1.5652811527252197,-0.0039264908991754055
1685734993770928400,14.576928466796875,9.751564025878906,1.8143165111541748,0.2777848541736603
1685734993790928400,14.596928466796875,9.761754035949707,1.8443301916122437,0.30395829677581787
1685734993810928400,14.616928466796875,9.60863971710205,1.8068082332611084,0.23281218111515045
1685734993830928400,14.636928466796874,9.642245292663574,1.742662787437439,0.2905890643596649
1685734993850928400,14.656928466796876,9.587791442871094,1.7421361207962036,0.19072210788726807
1685734993870928400,14.676928466796875,9.608936309814453,1.6360920667648315,0.010477026924490929
1685734993890928400,14.696928466796875,9.602118492126465,1.4999865293502808,-0.028826188296079636
1685734993910928400,14.716928466796874,9.791308403015137,1.4923442602157593,0.02106897532939911
1685734993930928400,14.736928466796876,9.694342613220215,1.6719093322753906,0.17169299721717834
1685734993950928400,14.756928466796875,9.73686408996582,1.7567598819732666,0.26655125617980957
1685734993970928400,14.776928466796875,9.643375396728516,1.8169405460357666,0.3635834753513336
1685734993990928400,14.796928466796874,9.632074356079102,1.8961502313613892,0.4381006062030792
1685734994010928400,14.816928466796876,9.426115989685059,1.8280879259109497,0.19442832469940186
1685734994030928400,14.836928466796875,9.589649200439453,1.6321656703948975,-0.030339322984218597
1685734994050928400,14.856928466796875,9.742341995239258,1.6561938524246216,0.009749189019203186
1685734994070928400,14.876928466796874,9.8953218460083,1.6689597368240356,0.03232172504067421
1685734994090928400,14.896928466796876,9.74356746673584,1.617714285850525,0.008255206979811192
1685734994110928400,14.916928466796875,9.587350845336914,1.6939839124679565,0.25594016909599304
1685734994130928400,14.936928466796875,9.580340385437012,1.8055249452590942,0.3297198712825775
1685734994150928400,14.956928466796874,9.618130683898926,1.8187696933746338,0.3041306436061859
1685734994170928400,14.976928466796876,9.615813255310059,1.7693917751312256,0.29799190163612366
1685734994190928400,14.996928466796875,9.6733980178833,1.6492506265640259,0.15693514049053192
1685734994210928400,15.016928466796875,9.52285099029541,1.5072457790374756,-0.11642523854970932
1685734994230928400,15.036928466796875,9.593087196350098,1.5319252014160156,-0.06106172129511833
1685734994250928400,15.056928466796874,9.881943702697754,1.805975079536438,0.30665892362594604
1685734994270928400,15.076928466796875,9.90645980834961,1.8875216245651245,0.39565619826316833
1685734994290928400,15.096928466796875,9.587715148925781,1.8926931619644165,0.3819805383682251
1685734994310928400,15.116928466796875,9.548201560974121,1.703139305114746,0.28680622577667236
1685734994330928400,15.136928466796874,9.539945602416992,1.5839272737503052,0.13424767553806305
1685734994350928400,15.156928466796876,9.551351547241211,1.5321263074874878,-0.04333505406975746
1685734994370928400,15.176928466796875,9.55228042602539,1.5618526935577393,-0.046524129807949066
1685734994390928400,15.196928466796875,9.778091430664062,1.6365996599197388,0.12230540066957474
1685734994410928400,15.216928466796874,9.748786926269531,1.8532270193099976,0.35283827781677246
1685734994430928400,15.236928466796876,9.809552192687988,1.8806071281433105,0.409714937210083
1685734994450928400,15.256928466796875,9.672134399414062,1.807239294052124,0.3517465591430664
1685734994470928400,15.276928466796875,9.630025863647461,1.7455837726593018,0.2545802593231201
1685734994490928400,15.296928466796874,9.499560356140137,1.6996151208877563,0.041343074291944504
1685734994510928400,15.316928466796876,9.663467407226562,1.655398964881897,-0.014489708468317986
1685734994530928400,15.336928466796875,9.651123046875,1.7380467653274536,0.1298614889383316
1685734994550928400,15.356928466796875,9.648929595947266,1.6861021518707275,0.08836519718170166
1685734994570928400,15.376928466796874,9.682055473327637,1.7164989709854126,0.10751880705356598
1685734994590928400,15.396928466796876,9.814407348632812,1.8020199537277222,0.31569942831993103
1685734994610928400,15.416928466796875,9.753680229187012,1.9284241199493408,0.4349881410598755
1685734994630928400,15.436928466796875,9.563772201538086,1.799472451210022,0.26958709955215454
1685734994650928400,15.456928466796874,9.530014991760254,1.62259840965271,0.1382795125246048
1685734994670928400,15.476928466796876,9.682611465454102,1.41865074634552,0.06319735199213028
1685734994690928400,15.496928466796875,9.565314292907715,1.302972435951233,-0.10267294198274612
1685734994710928400,15.516928466796875,9.648154258728027,1.3463361263275146,-0.036794088780879974
1685734994730928400,15.536928466796875,9.702397346496582,1.7260757684707642,0.3204399347305298
1685734994750928400,15.556928466796874,9.737946510314941,1.9437470436096191,0.545782208442688
1685734994770928400,15.576928466796875,9.54569149017334,2.0807528495788574,0.5047934651374817
1685734994790928400,15.596928466796875,9.712624549865723,1.907728672027588,0.31995153427124023
1685734994810928400,15.616928466796875,9.641976356506348,1.740268588066101,0.12014104425907135
1685734994830928400,15.636928466796874,9.75446605682373,1.5242732763290405,-0.15469415485858917
1685734994850928400,15.656928466796876,9.628262519836426,1.471964716911316,-0.25604549050331116
1685734994870928400,15.676928466796875,9.741642951965332,1.5338022708892822,-0.016912641003727913
1685734994890928400,15.696928466796875,9.738826751708984,1.6642574071884155,0.25902390480041504
1685734994910928400,15.716928466796874,9.675275802612305,1.8176491260528564,0.49515920877456665
1685734994930928400,15.736928466796876,9.56645393371582,1.7791792154312134,0.39707356691360474
1685734994950928400,15.756928466796875,9.560813903808594,1.7622761726379395,0.36992332339286804
1685734994970928400,15.776928466796875,9.452672004699707,1.808024525642395,0.30160239338874817
1685734994990928400,15.796928466796874,9.596515655517578,1.7458231449127197,0.09925402700901031
1685734995010928400,15.816928466796876,9.648201942443848,1.600207805633545,-0.04193683713674545
1685734995030928400,15.836928466796875,9.834681510925293,1.5898551940917969,0.062287550419569016
1685734995050928400,15.856928466796875,9.986838340759277,1.705782413482666,0.21485567092895508
1685734995070928400,15.876928466796874,9.830495834350586,1.4691396951675415,0.16598521173000336
1685734995090928400,15.896928466796876,9.44124698638916,1.4793388843536377,0.2320268750190735
1685734995110928400,15.916928466796875,9.626788139343262,1.5372689962387085,0.2750171422958374
1685734995130928400,15.936928466796875,9.67271900177002,1.4231805801391602,0.2058151513338089
1685734995150928400,15.956928466796874,9.728330612182617,1.3862332105636597,0.14742536842823029
1685734995170928400,15.976928466796876,9.733492851257324,1.4570823907852173,0.20623654127120972
1685734995190928400,15.996928466796875,9.64338493347168,1.2787623405456543,-0.001149216783232987
1685734995210928400,16.016928466796877,9.56969165802002,1.312233328819275,-0.05160941183567047
1685734995230928400,16.036928466796876,9.750875473022461,1.5392897129058838,0.26000073552131653
1685734995250928400,16.056928466796876,9.682075500488281,1.7522683143615723,0.3852270543575287
1685734995270928400,16.076928466796875,9.779767990112305,1.684301733970642,0.40795281529426575
1685734995290928400,16.096928466796875,9.669031143188477,1.742547869682312,0.45798206329345703
1685734995310928400,16.116928466796875,9.548669815063477,1.5108275413513184,0.14399686455726624
1685734995330928400,16.136928466796874,9.474651336669922,1.3919600248336792,-0.060918066650629044
1685734995350928400,16.156928466796874,9.617488861083984,1.3770778179168701,0.06980534642934799
1685734995370928400,16.176928466796873,9.739602088928223,1.5375372171401978,0.2184852808713913
1685734995390926800,16.1969267578125,9.803289413452148,1.493033766746521,0.23833799362182617
1685734995410928400,16.216928466796876,9.750683784484863,1.543695092201233,0.24485021829605103
1685734995430928400,16.236928466796876,9.844908714294434,1.5897308588027954,0.23843376338481903
1685734995450928400,16.256928466796875,9.66446304321289,1.4770021438598633,0.10061392933130264
1685734995470928400,16.276928466796875,9.501830101013184,1.6804136037826538,0.1841045320034027
1685734995490928400,16.296928466796874,9.558218002319336,1.7108391523361206,0.20819978415966034
1685734995510928400,16.316928466796874,9.577438354492188,1.6528515815734863,0.12120406329631805
1685734995530928400,16.336928466796873,9.745406150817871,1.5921441316604614,0.08850885182619095
1685734995550928400,16.356928466796877,9.728273391723633,1.451039433479309,-0.13399869203567505
1685734995570928400,16.376928466796876,9.885639190673828,1.5098888874053955,-0.0805792510509491
1685734995590928400,16.396928466796876,9.83531379699707,1.7449325323104858,0.03799119219183922
1685734995610928400,16.416928466796875,9.709809303283691,1.9344191551208496,0.15174449980258942
1685734995630928400,16.436928466796875,9.640387535095215,2.0044639110565186,0.22290976345539093
1685734995650928400,16.456928466796874,9.553094863891602,1.9673250913619995,0.16367720067501068
1685734995670928400,16.476928466796874,9.52857780456543,1.9441205263137817,-0.001130063203163445
1685734995690928400,16.496928466796874,9.532303810119629,1.9846879243850708,-0.022246921434998512
1685734995710928400,16.516928466796877,9.653182029724121,2.2163891792297363,0.16952863335609436
1685734995730928400,16.536928466796876,9.863900184631348,2.4481863975524902,0.4073973596096039
1685734995750928400,16.556928466796876,9.576902389526367,2.392564058303833,0.3323822319507599
1685734995770928400,16.576928466796875,9.353887557983398,2.127545118331909,0.07217081636190414
1685734995790928400,16.596928466796875,9.457671165466309,2.0323803424835205,0.07308061420917511
1685734995810928400,16.616928466796875,9.619260787963867,2.1383190155029297,0.20387105643749237
1685734995830928400,16.636928466796874,9.762367248535156,2.159311294555664,0.2527223527431488
1685734995850928400,16.656928466796874,9.777277946472168,2.310596227645874,0.2803897261619568
1685734995870928400,16.676928466796873,9.594379425048828,2.3756706714630127,0.19842186570167542
1685734995890928400,16.696928466796876,9.43432331085205,2.432508945465088,0.10196426510810852
1685734995910928400,16.716928466796876,9.455602645874023,2.702948570251465,0.289018452167511
1685734995930928400,16.736928466796876,9.508831024169922,2.8865549564361572,0.30910101532936096
1685734995950928400,16.756928466796875,9.482110977172852,2.9073939323425293,0.24662193655967712
1685734995970928400,16.776928466796875,9.485099792480469,2.6685965061187744,0.100355364382267
1685734995990928400,16.796928466796874,9.614606857299805,2.3543717861175537,0.041716571897268295
1685734996010928400,16.816928466796874,9.640081405639648,2.071808099746704,-0.07627926766872406
1685734996030928400,16.836928466796873,9.567191123962402,1.9600659608840942,-0.18454506993293762
1685734996050928400,16.856928466796877,9.617220878601074,2.229585886001587,-0.026173412799835205
1685734996070928400,16.876928466796876,9.423089981079102,2.7368597984313965,0.2721058130264282
1685734996090928400,16.896928466796876,9.150686264038086,3.184661865234375,0.48280513286590576
1685734996110928400,16.916928466796875,9.208185195922852,3.292276382446289,0.42030689120292664
1685734996130928400,16.936928466796875,9.447481155395508,3.1414034366607666,0.36977967619895935
1685734996150928400,16.956928466796874,9.580503463745117,2.7145841121673584,0.10976935923099518
1685734996170928400,16.976928466796874,9.65951156616211,2.0854551792144775,-0.19379626214504242
1685734996190928400,16.996928466796874,9.644667625427246,1.8494346141815186,-0.41037577390670776
1685734996210928400,17.016928466796877,9.695816993713379,2.1844027042388916,-0.0884992778301239
1685734996230928400,17.036928466796876,9.586211204528809,2.982447624206543,0.5138339996337891
1685734996250928400,17.056928466796876,9.309622764587402,3.463164806365967,0.7460811138153076
1685734996270928400,17.076928466796875,9.231649398803711,3.511202096939087,0.6789668798446655
1685734996290928400,17.096928466796875,9.297672271728516,3.125237464904785,0.41897571086883545
1685734996310928400,17.116928466796875,9.563236236572266,2.356813907623291,-0.019728220999240875
1685734996330928400,17.136928466796874,9.93250846862793,1.8237974643707275,-0.5295590758323669
1685734996350928400,17.156928466796874,9.852417945861816,1.8588007688522339,-0.5728079676628113
1685734996370928400,17.176928466796873,9.614730834960938,2.5403053760528564,-0.0991678312420845
1685734996390926800,17.1969267578125,9.236849784851074,3.470759391784668,0.6068726778030396
1685734996410928400,17.216928466796876,9.238640785217285,3.9798145294189453,0.9534860253334045
1685734996430928400,17.236928466796876,9.219486236572266,3.5809977054595947,0.7497011423110962
1685734996450928400,17.256928466796875,9.42609691619873,2.9297752380371094,0.31045135855674744
1685734996470928400,17.276928466796875,9.800990104675293,1.8533036708831787,-0.47121718525886536
1685734996490928400,17.296928466796874,10.003664016723633,1.7823299169540405,-0.7042017579078674
1685734996510928400,17.316928466796874,9.777048110961914,2.440237283706665,-0.34714967012405396
1685734996530928400,17.336928466796873,9.234148025512695,3.4216878414154053,0.40215885639190674
1685734996550928400,17.356928466796877,8.864532470703125,3.9223344326019287,0.9803681373596191
1685734996570928400,17.376928466796876,9.054344177246094,4.532214164733887,1.170046329498291
1685734996590928400,17.396928466796876,9.508285522460938,3.619314670562744,0.41101738810539246
1685734996610928400,17.416928466796875,9.398908615112305,2.596320390701294,-0.22491130232810974
1685734996630928400,17.436928466796875,9.646401405334473,1.962814450263977,-0.5793585181236267
1685734996650928400,17.456928466796874,10.097085952758789,2.0694615840911865,-0.4798171818256378
1685734996670928400,17.476928466796874,9.51146411895752,3.5196011066436768,0.2467176914215088
1685734996690928400,17.496928466796874,9.172033309936523,4.487270355224609,1.0826771259307861
1685734996710928400,17.516928466796877,9.336745262145996,4.9524641036987305,1.082064151763916
1685734996730928400,17.536928466796876,8.920852661132812,4.602977275848389,0.7254622578620911
1685734996750928400,17.556928466796876,9.015453338623047,3.7453837394714355,0.04469495639204979
1685734996770928400,17.576928466796875,9.140573501586914,2.4447193145751953,-0.8840733766555786
1685734996790928400,17.596928466796875,9.704781532287598,2.029057264328003,-1.0392463207244873
1685734996810928400,17.616928466796875,10.059688568115234,2.698523998260498,-0.8900492787361145
1685734996830928400,17.636928466796874,9.506158828735352,3.9573185443878174,-0.1553070843219757
1685734996850928400,17.656928466796874,9.148235321044922,5.343474864959717,0.9964571595191956
1685734996870928400,17.676928466796873,8.930200576782227,6.1512980461120605,1.7198987007141113
1685734996890928400,17.696928466796876,8.77548599243164,5.476592540740967,0.6595834493637085
1685734996910928400,17.716928466796876,8.72988224029541,4.09208345413208,-0.2069835215806961
1685734996930928400,17.736928466796876,9.553276062011719,2.5367045402526855,-1.2369786500930786
1685734996950928400,17.756928466796875,10.000417709350586,1.8814594745635986,-1.5496996641159058
1685734996970928400,17.776928466796875,10.233842849731445,2.9982779026031494,-0.5186798572540283
1685734996990928400,17.796928466796874,9.621847152709961,5.151872158050537,0.9862674474716187
1685734997010928400,17.816928466796874,8.874252319335938,6.8227949142456055,2.031729221343994
1685734997030928400,17.836928466796873,8.802072525024414,7.011496067047119,1.6007728576660156
1685734997050928400,17.856928466796877,8.9680757522583,5.518845558166504,0.2985282242298126
1685734997070928400,17.876928466796876,8.577370643615723,3.254361867904663,-1.4345768690109253
1685734997090928400,17.896928466796876,8.241177558898926,1.8321102857589722,-2.4505133628845215
1685734997110928400,17.916928466796875,9.520466804504395,1.71894109249115,-1.4993544816970825
1685734997130928400,17.936928466796875,10.605088233947754,3.1116387844085693,0.022859837859869003
1685734997150928400,17.956928466796874,10.62659740447998,4.8944091796875,1.3367499113082886
1685734997170928400,17.976928466796874,10.073603630065918,6.457669258117676,1.8742194175720215
1685734997190928400,17.996928466796874,8.999037742614746,6.3560404777526855,0.7925669550895691
1685734997210928400,18.016928466796877,7.52217960357666,5.654137134552002,-0.5988664627075195
1685734997230928400,18.036928466796876,7.615811824798584,4.942398548126221,-0.7997591495513916
1685734997250928400,18.056928466796876,7.9590253829956055,3.846313714981079,-1.2324583530426025
1685734997270928400,18.076928466796875,9.512603759765625,2.287602186203003,-1.1015338897705078
1685734997290928400,18.096928466796875,9.467525482177734,1.5685756206512451,-1.0926274061203003
1685734997310928400,18.116928466796875,10.046003341674805,1.0146148204803467,-0.7721108794212341
1685734997330928400,18.136928466796874,9.493814468383789,1.3738982677459717,0.03343263268470764
1685734997350928400,18.156928466796874,9.538336753845215,1.80424165725708,0.8925009369850159
1685734997370928400,18.176928466796873,9.265358924865723,1.894627571105957,0.7781634330749512
1685734997390926800,18.1969267578125,9.05567455291748,1.8279825448989868,0.5433688163757324
1685734997410928400,18.216928466796876,8.745165824890137,1.6351919174194336,0.10443507879972458
1685734997430928400,18.236928466796876,8.625246047973633,1.3786579370498657,-0.4647241234779358
1685734997450928400,18.256928466796875,9.130844116210938,1.3905044794082642,-0.8950579166412354
1685734997470930000,18.276929931640623,9.462641716003418,1.6959376335144043,-0.7800500392913818
1685734997490928400,18.296928466796874,10.347845077514648,2.418076753616333,-0.0803494080901146
1685734997510928400,18.316928466796874,10.882518768310547,2.9856748580932617,0.48124411702156067
1685734997530928400,18.336928466796873,10.913642883300781,3.182717800140381,0.4849790632724762
1685734997550928400,18.356928466796877,10.904228210449219,2.7807600498199463,-0.09687897562980652
1685734997570928400,18.376928466796876,10.072559356689453,2.8407201766967773,0.033566705882549286
1685734997590928400,18.396928466796876,9.936539649963379,3.259772777557373,0.07610688358545303
1685734997610928400,18.416928466796875,9.769367218017578,3.9219419956207275,0.6065470576286316
1685734997630928400,18.436928466796875,9.829318046569824,4.080207824707031,0.5302678346633911
1685734997650928400,18.456928466796874,9.468148231506348,3.9442269802093506,0.256763756275177
1685734997670928400,18.476928466796874,9.20593547821045,4.1346330642700195,0.3661404848098755
1685734997690928400,18.496928466796874,9.287176132202148,4.248817443847656,0.28374165296554565
1685734997710928400,18.516928466796877,9.131360054016113,4.197638988494873,0.48445236682891846
1685734997730928400,18.536928466796876,9.111757278442383,3.821729898452759,0.055507171899080276
1685734997750928400,18.556928466796876,9.235230445861816,3.8591275215148926,0.04684973880648613
1685734997770928400,18.576928466796875,9.94264030456543,3.657918691635132,0.13326126337051392
1685734997790928400,18.596928466796875,9.557806968688965,3.5182411670684814,0.2616575062274933
1685734997810928400,18.616928466796875,9.033255577087402,3.1731886863708496,0.0766623392701149
1685734997830928400,18.636928466796874,8.540874481201172,3.076453447341919,0.1300721913576126
1685734997850928400,18.656928466796874,8.477590560913086,3.2053475379943848,0.5308136343955994
1685734997870928400,18.676928466796873,8.974933624267578,2.935760498046875,0.22164560854434967
1685734997890928400,18.696928466796876,8.967195510864258,2.555408239364624,0.00894473772495985
1685734997910928400,18.716928466796876,9.31368350982666,2.1801695823669434,-0.20738576352596283
1685734997930928400,18.736928466796876,9.02962589263916,2.21794056892395,-0.10982681810855865
1685734997950928400,18.756928466796875,9.105062484741211,1.9797462224960327,-0.5278544425964355
1685734997970928400,18.776928466796875,9.140420913696289,2.0543973445892334,-0.1977323293685913
1685734997990928400,18.796928466796874,9.524986267089844,2.1995627880096436,-0.08613379299640656
1685734998010928400,18.816928466796874,9.560622215270996,2.2835896015167236,-0.25562411546707153
1685734998030928400,18.836928466796873,9.9059419631958,2.4369428157806396,-0.107107013463974
1685734998050928400,18.856928466796877,9.990151405334473,2.2225470542907715,-0.49170199036598206
1685734998070928400,18.876928466796876,9.973066329956055,2.05191707611084,-0.8770822882652283
1685734998090928400,18.896928466796876,9.741747856140137,2.3596487045288086,-0.7189021706581116
1685734998110928400,18.916928466796875,9.878036499023438,2.571803569793701,-0.5488755702972412
1685734998130928400,18.936928466796875,9.877796173095703,2.769306182861328,-0.3395552635192871
1685734998150928400,18.956928466796874,9.701497077941895,2.928769588470459,-0.12767799198627472
1685734998170928400,18.976928466796874,9.993638038635254,2.796973466873169,-0.006579265929758549
1685734998190928400,18.996928466796874,9.753690719604492,2.949235200881958,0.046006981283426285
1685734998210928400,19.016928466796877,9.40080451965332,3.1195874214172363,-0.09852619469165802
1685734998230928400,19.036928466796876,9.873324394226074,3.4662389755249023,0.2917670011520386
1685734998250928400,19.056928466796876,9.872912406921387,3.5094687938690186,0.31353506445884705
1685734998270928400,19.076928466796875,9.466970443725586,3.147733688354492,0.04592078924179077
1685734998290928400,19.096928466796875,9.036425590515137,3.1354944705963135,-0.060467954725027084
1685734998310928400,19.116928466796875,8.890456199645996,2.961388111114502,-0.27072674036026
1685734998330928400,19.136928466796874,9.153358459472656,3.1524646282196045,0.21226993203163147
1685734998350928400,19.156928466796874,9.430645942687988,3.1912219524383545,0.24164198338985443
1685734998370928400,19.176928466796873,9.503792762756348,2.7796010971069336,-0.038508340716362
1685734998390928400,19.196928466796876,9.383700370788574,2.5645923614501953,0.03137362003326416
1685734998410928400,19.216928466796876,9.045897483825684,2.440735340118408,0.041343074291944504
1685734998430928400,19.236928466796876,9.1956787109375,2.6568551063537598,0.25152525305747986
1685734998450928400,19.256928466796875,9.537379264831543,2.546262264251709,0.07502470165491104
1685734998470928400,19.276928466796875,9.473980903625488,2.4791479110717773,0.09400593489408493
1685734998490928400,19.296928466796874,9.689104080200195,2.316256046295166,-0.022313959896564484
1685734998510928400,19.316928466796874,9.324515342712402,2.0512943267822266,-0.24496513605117798
1685734998530928400,19.336928466796873,9.154565811157227,2.2333016395568848,-0.10656112432479858
1685734998550928400,19.356928466796877,9.541525840759277,2.5673696994781494,0.12978488206863403
1685734998570928400,19.376928466796876,9.664319038391113,2.329759359359741,-0.1385955512523651
1685734998590928400,19.396928466796876,9.619739532470703,2.173370122909546,-0.21769995987415314
1685734998610928400,19.416928466796875,9.496639251708984,2.267874002456665,-0.04028962552547455
1685734998630928400,19.436928466796875,9.952495574951172,2.3748085498809814,0.0056407395750284195
1685734998650928400,19.456928466796874,9.71773910522461,2.359926223754883,-0.13441047072410583
1685734998670928400,19.476928466796874,9.587762832641602,2.355367660522461,-0.12774503231048584
1685734998690928400,19.496928466796874,9.693299293518066,2.813579559326172,0.4154035747051239
1685734998710928400,19.516928466796877,9.1235933303833,3.0834732055664062,0.19503167271614075
1685734998730928400,19.536928466796876,9.19731616973877,3.0845937728881836,0.12052411586046219
1685734998750928400,19.556928466796876,9.731242179870605,2.9298996925354004,0.1919383555650711
1685734998770928400,19.576928466796875,9.587878227233887,3.0079505443573,0.19696618616580963
1685734998790928400,19.596928466796875,9.592733383178711,2.998699188232422,-0.014939818531274796
1685734998810928400,19.616928466796875,10.0092191696167,2.7497024536132812,-0.12314815819263458
1685734998830928400,19.636928466796874,10.13364028930664,2.932044744491577,0.22850261628627777
1685734998850928400,19.656928466796874,9.709444999694824,3.151468515396118,0.08748412877321243
1685734998870928400,19.676928466796873,9.549015045166016,2.8727450370788574,-0.2862316071987152
1685734998890928400,19.696928466796876,9.327474594116211,2.9632363319396973,-0.05875370651483536
1685734998910928400,19.716928466796876,9.287999153137207,3.1522345542907715,0.11690407991409302
1685734998930928400,19.736928466796876,9.46098518371582,3.017853021621704,-0.006914454512298107
1685734998950928400,19.756928466796875,9.890542984008789,2.936124563217163,-0.12103168666362762
1685734998970928400,19.776928466796875,9.723418235778809,2.4465293884277344,-0.3717237412929535
1685734998990928400,19.796928466796874,9.42839527130127,2.6601784229278564,0.04061523824930191
1685734999010928400,19.816928466796874,9.472869873046875,2.842108964920044,-0.033212363719940186
1685734999030928400,19.836928466796873,9.367878913879395,2.603560209274292,-0.17761147022247314
1685734999050928400,19.856928466796877,9.165971755981445,2.6973748207092285,0.057384226471185684
1685734999070928400,19.876928466796876,8.984471321105957,2.52932071685791,0.009519346058368683
1685734999090928400,19.896928466796876,9.194998741149902,2.2986154556274414,-0.15820884704589844
1685734999110928400,19.916928466796875,9.361175537109375,2.035435199737549,-0.21884918212890625
1685734999130928400,19.936928466796875,9.064112663269043,2.2013344764709473,-0.01722867600619793
1685734999150928400,19.956928466796874,8.994824409484863,2.6546237468719482,0.2171923965215683
1685734999170928400,19.976928466796874,9.339885711669922,2.6695923805236816,0.39603927731513977
1685734999190928400,19.996928466796874,9.451091766357422,2.7022972106933594,0.5343188047409058
1685734999210928400,20.016928466796877,9.572525978088379,2.582376480102539,0.3215221166610718
1685734999230928400,20.036928466796876,8.89472770690918,2.3605775833129883,-0.5011351108551025
1685734999250928400,20.056928466796876,9.87810230255127,2.302532434463501,-0.12339715659618378
1685734999270928400,20.076928466796875,9.661513328552246,2.589252471923828,0.19684168696403503
1685734999290928400,20.096928466796875,9.519652366638184,3.056600570678711,0.39576154947280884
1685734999310928400,20.116928466796875,9.54422664642334,2.9610815048217773,-0.04412992298603058
1685734999330928400,20.136928466796874,9.818391799926758,2.778451919555664,0.18584752082824707
1685734999350928400,20.156928466796874,9.771100997924805,3.113640069961548,0.3219913840293884
1685734999370928400,20.176928466796873,9.401695251464844,3.04129695892334,-0.04239652305841446
1685734999390928400,20.196928466796876,9.567450523376465,2.8458151817321777,-0.11245086789131165
1685734999410928400,20.216928466796876,9.868756294250488,3.145923614501953,0.358124703168869
1685734999430928400,20.236928466796876,9.888254165649414,3.1357338428497314,0.07455544173717499
1685734999450928400,20.256928466796875,9.745244026184082,2.62091326713562,-0.1406162530183792
1685734999470928400,20.276928466796875,9.288555145263672,2.944685935974121,0.11012370139360428
1685734999490928400,20.296928466796874,9.865211486816406,3.1826601028442383,0.3263392746448517
1685734999510928400,20.316928466796874,9.499129295349121,2.762343645095825,-0.035606566816568375
1685734999530928400,20.336928466796873,9.283219337463379,3.0502991676330566,0.16485515236854553
1685734999550928400,20.356928466796877,9.792524337768555,2.9416120052337646,-0.04043327644467354
1685734999570928400,20.376928466796876,10.139731407165527,2.40482234954834,-0.46843037009239197
1685734999590928400,20.396928466796876,9.737485885620117,2.2308883666992188,-0.43717166781425476
1685734999610928400,20.416928466796875,9.226611137390137,2.7726292610168457,-0.007211335469037294
1685734999630928400,20.436928466796875,8.928466796875,2.6912262439727783,-0.34552159905433655
1685734999650928400,20.456928466796874,9.281754493713379,2.564343214035034,-0.12593501806259155
1685734999670928400,20.476928466796874,9.131570816040039,2.8814504146575928,0.303737998008728
1685734999690928400,20.496928466796874,9.188677787780762,2.59006667137146,-0.006282385438680649
1685734999710928400,20.516928466796877,9.718496322631836,2.209503412246704,-0.12999556958675385
1685734999730928400,20.536928466796876,9.463944435119629,2.167470693588257,-0.058973975479602814
1685734999750928400,20.556928466796876,9.21781063079834,2.5030517578125,0.02807919681072235
1685734999770928400,20.576928466796875,9.09798526763916,2.681429147720337,0.2551165521144867
1685734999790928400,20.596928466796875,9.219669342041016,2.902921676635742,0.5823943614959717
1685734999810928400,20.616928466796875,8.788454055786133,2.6949708461761475,0.22387701272964478
1685734999830928400,20.636928466796874,9.053797721862793,2.607783794403076,0.122736357152462
1685734999850928400,20.656928466796874,9.707693099975586,2.554795265197754,0.2464303821325302
1685734999870928400,20.676928466796873,10.08420467376709,2.69142746925354,0.2958754599094391
1685734999890928400,20.696928466796876,9.634946823120117,2.6345603466033936,-0.06402094662189484
1685734999910928400,20.716928466796876,9.734681129455566,2.8172764778137207,0.1754758358001709
1685734999930928400,20.736928466796876,9.49963665008545,3.1003856658935547,0.3515549898147583
1685734999950928400,20.756928466796875,9.140698432922363,3.3547074794769287,0.23920947313308716
1685734999970928400,20.776928466796875,9.51086139678955,3.24277400970459,0.07697837054729462
1685734999990928400,20.796928466796874,9.772825241088867,3.2066309452056885,0.13022541999816895
1685735000010928400,20.816928466796874,9.911104202270508,2.8634555339813232,-0.12315773963928223
1685735000030928400,20.836928466796873,9.692246437072754,2.8439571857452393,-0.1252167522907257
1685735000050928400,20.856928466796877,9.610727310180664,3.1741750240325928,0.07654741406440735
1685735000070928400,20.876928466796876,9.950742721557617,3.3405723571777344,0.12914323806762695
1685735000090928400,20.896928466796876,10.052783012390137,3.222835063934326,0.1780615746974945
1685735000110928400,20.916928466796875,9.614424705505371,2.8514177799224854,-0.3655850291252136
1685735000130928400,20.936928466796875,9.256634712219238,2.620176076889038,-0.39880698919296265
1685735000150928400,20.956928466796874,9.425493240356445,2.8805789947509766,-0.0667024627327919
1685735000170928400,20.976928466796874,9.131887435913086,2.862813949584961,-0.2107567936182022
1685735000190928400,20.996928466796874,9.088542938232422,2.7465035915374756,-0.19469648599624634
1685735000210928400,21.016928466796877,9.34546947479248,2.972947359085083,0.2261754423379898
1685735000230928400,21.036928466796876,9.567641258239746,2.9353392124176025,0.06218220666050911
1685735000250928400,21.056928466796876,9.364843368530273,2.688650131225586,-0.11457692086696625
1685735000270928400,21.076928466796875,9.464299201965332,2.599959373474121,0.18442055583000183
1685735000290928400,21.096928466796875,9.307104110717773,2.939725399017334,0.3924383819103241
1685735000310928400,21.116928466796875,9.1303071975708,2.697336435317993,-0.00793917290866375
1685735000330928400,21.136928466796874,9.068384170532227,2.6062514781951904,-0.03134488686919212
1685735000350928400,21.156928466796874,9.780007362365723,2.7532553672790527,0.2844598889350891
1685735000370928400,21.176928466796873,9.617709159851074,2.6953060626983643,0.20818063616752625
1685735000390928400,21.196928466796876,9.163434028625488,2.6086933612823486,-0.35037705302238464
1685735000410928400,21.216928466796876,9.121736526489258,2.506777048110962,-0.4100501537322998
1685735000430928400,21.236928466796876,9.218864440917969,2.541703701019287,0.049205634742975235
1685735000450928400,21.256928466796875,9.111345291137695,2.995730400085449,0.4484914243221283
1685735000470928400,21.276928466796875,9.170903205871582,2.933088541030884,0.0006033388199284673
1685735000490928400,21.296928466796874,9.606284141540527,2.0394768714904785,-0.35473451018333435
1685735000510928400,21.316928466796874,9.630828857421875,2.0793354511260986,0.1639070361852646
1685735000530928400,21.336928466796873,9.676377296447754,2.260308265686035,0.24829787015914917
1685735000550928400,21.356928466796877,9.488192558288574,2.124844551086426,-0.28319573402404785
1685735000570928400,21.376928466796876,9.95322322845459,1.8228493928909302,-0.11189541220664978
1685735000590928400,21.396928466796876,10.343544960021973,2.046774387359619,0.3398617208003998
1685735000610928400,21.416928466796875,9.949258804321289,1.8182909488677979,-0.008992621675133705
1685735000630928400,21.436928466796875,9.584114074707031,1.4681148529052734,-0.30820080637931824
1685735000650928400,21.456928466796874,9.473721504211426,1.536435842514038,-0.13192051649093628
1685735000670928400,21.476928466796874,9.344003677368164,1.7150720357894897,0.028146235272288322
1685735000690928400,21.496928466796874,9.272388458251953,1.5653865337371826,-0.14863203465938568
1685735000710928400,21.516928466796877,9.633338928222656,1.2567452192306519,-0.2560742497444153
1685735000730928400,21.536928466796876,10.144405364990234,1.0838359594345093,-0.09116162359714508
1685735000750928400,21.556928466796876,10.097430229187012,0.8757127523422241,-0.2253422737121582
1685735000770928400,21.576928466796875,9.848433494567871,0.6508398056030273,-0.30603644251823425
1685735000790928400,21.596928466796875,9.490212440490723,1.0160895586013794,-0.0006895300466567278
1685735000810928400,21.616928466796875,9.97154426574707,1.5157020092010498,0.3446213901042938
1685735000830928400,21.636928466796874,9.99792766571045,1.485266923904419,0.4023120701313019
1685735000850928400,21.656928466796874,9.706745147705078,1.8142685890197754,0.41030871868133545
1685735000870928400,21.676928466796873,9.486000061035156,1.8332499265670776,-0.020005948841571808
1685735000890928400,21.696928466796876,9.092727661132812,1.1314327716827393,-0.7152150869369507
1685735000910928400,21.716928466796876,9.24168586730957,1.3406859636306763,-0.2145013064146042
1685735000930928400,21.736928466796876,10.04910659790039,1.8932101726531982,0.1799960732460022
1685735000950928400,21.756928466796875,10.055781364440918,1.3541316986083984,-0.30412107706069946
1685735000970928400,21.776928466796875,10.436670303344727,1.1066287755966187,-0.18669027090072632
1685735000990928400,21.796928466796874,10.375981330871582,1.5238518714904785,0.29255229234695435
1685735001010928400,21.816928466796874,9.511272430419922,1.3329765796661377,-0.29893043637275696
1685735001030928400,21.836928466796873,9.291092872619629,1.3533656597137451,-0.40175661444664
1685735001050928400,21.856928466796877,9.777450561523438,1.798811674118042,0.017161637544631958
1685735001070928400,21.876928466796876,9.917444229125977,1.4619665145874023,-0.010917559266090393
1685735001090928400,21.896928466796876,9.568647384643555,1.4186410903930664,-0.41344988346099854
1685735001110928400,21.916928466796875,9.966458320617676,1.065256953239441,-0.3512006402015686
1685735001130928400,21.936928466796875,9.973430633544922,1.1389696598052979,-0.311648428440094
1685735001150928400,21.956928466796874,9.93687629699707,1.2091197967529297,-0.3085072636604309
1685735001170928400,21.976928466796874,9.64206314086914,1.2166662216186523,-0.3503291606903076
1685735001190928400,21.996928466796874,9.3502197265625,1.2295374870300293,-0.09272263944149017
1685735001210928400,22.016928466796877,9.527946472167969,1.7037140130996704,0.11118672788143158
1685735001230928400,22.036928466796876,8.780734062194824,1.2612558603286743,-0.5305647253990173
1685735001250928400,22.056928466796876,8.861888885498047,1.3738600015640259,-0.1899559646844864
1685735001270928400,22.076928466796875,10.254021644592285,2.2838292121887207,0.8487445116043091
1685735001290928400,22.096928466796875,9.367409706115723,1.8328666687011719,0.17674954235553741
1685735001310928400,22.116928466796875,9.7041015625,0.9579967260360718,-0.15508680045604706
1685735001330928400,22.136928466796874,9.857378959655762,1.0559579133987427,-0.06850289553403854
1685735001350928400,22.156928466796874,8.884183883666992,0.5999869108200073,-1.1255812644958496
1685735001370928400,22.176928466796873,8.959782600402832,0.3105471134185791,-1.004607081413269
1685735001390926800,22.1969267578125,9.932584762573242,1.5560011863708496,-0.2812325060367584
1685735001410928400,22.216928466796876,9.788626670837402,1.7822246551513672,-0.09983821213245392
1685735001430928400,22.236928466796876,10.238765716552734,2.221503257751465,0.19144995510578156
1685735001450928400,22.256928466796875,10.601639747619629,2.273007392883301,0.19766530394554138
1685735001470928400,22.276928466796875,10.17758846282959,1.4701931476593018,-0.327986478805542
1685735001490928400,22.296928466796874,9.630427360534668,1.1231199502944946,-0.5473241209983826
1685735001510928400,22.316928466796874,9.675285339355469,1.1603834629058838,-0.6820985078811646
1685735001530928400,22.336928466796873,9.594869613647461,0.6970574259757996,-0.825712263584137
1685735001550928400,22.356928466796877,9.997027397155762,1.0019159317016602,-0.06242162734270096
1685735001570928400,22.376928466796876,9.89974594116211,1.446519136428833,0.03313574939966202
1685735001590928400,22.396928466796876,9.94362735748291,1.3877367973327637,-0.1784350574016571
1685735001610928400,22.416928466796875,10.220913887023926,1.4597638845443726,0.05797798931598663
1685735001630928400,22.436928466796875,9.8955717086792,1.7504774332046509,-0.016405070200562477
1685735001650928400,22.456928466796874,9.566071510314941,1.5563172101974487,-0.5069865584373474
1685735001670928400,22.476928466796874,9.426901817321777,1.149571180343628,-0.48176124691963196
1685735001690928400,22.496928466796874,9.8009614944458,1.5036065578460693,0.05795883387327194
1685735001710928400,22.516928466796877,9.654532432556152,1.2119641304016113,-0.09917741268873215
1685735001730928400,22.536928466796876,10.044462203979492,0.7477283477783203,-0.7436294555664062
1685735001750928400,22.556928466796876,9.260236740112305,0.4408012628555298,-0.8930755853652954
1685735001770928400,22.576928466796875,8.211230278015137,1.7060602903366089,-0.387630820274353
1685735001790928400,22.596928466796875,8.773380279541016,3.0282435417175293,0.3610839247703552
1685735001810928400,22.616928466796875,9.191828727722168,3.8547604084014893,0.7360063195228577
1685735001830928400,22.636928466796874,10.309930801391602,4.8022894859313965,1.3776811361312866
1685735001850928400,22.656928466796874,10.374602317810059,4.787886142730713,1.0071641206741333
1685735001870928400,22.676928466796873,9.385461807250977,3.9862215518951416,-0.22768858075141907
1685735001890928400,22.696928466796876,8.9591703414917,3.8846018314361572,-0.5501013994216919
1685735001910928400,22.716928466796876,8.959179878234863,4.372932434082031,-0.11370542645454407
1685735001930928400,22.736928466796876,10.15562915802002,4.774795055389404,0.2478669136762619
1685735001950928400,22.756928466796875,10.058098793029785,4.462677478790283,-0.04902367293834686
1685735001970928400,22.776928466796875,9.155158996582031,3.9957025051116943,-0.5026195645332336
1685735001990928400,22.796928466796874,8.930688858032227,3.1197023391723633,-0.6716023087501526
1685735002010928400,22.816928466796874,9.031034469604492,2.914212703704834,-0.4209485352039337
1685735002030928400,22.836928466796873,9.472649574279785,2.2098865509033203,-0.37497031688690186
1685735002050928400,22.856928466796877,9.44266414642334,1.2520908117294312,-0.7103979587554932
1685735002070928400,22.876928466796876,9.191339492797852,0.40072232484817505,-0.8767758011817932
1685735002090928400,22.896928466796876,9.264881134033203,0.032216377556324005,-0.4474954605102539
1685735002110928400,22.916928466796875,9.146453857421875,-0.18963035941123962,-0.3521583378314972
1685735002130928400,22.936928466796875,8.555880546569824,-0.18807891011238098,-0.8700146079063416
1685735002150928400,22.956928466796874,8.763400077819824,0.15574760735034943,-0.9486880302429199
1685735002170928400,22.976928466796874,9.327886581420898,0.7822431921958923,-0.6743699908256531
1685735002190928400,22.996928466796874,10.095209121704102,1.4263887405395508,-0.01869392767548561
1685735002210928400,23.016928466796877,9.934798240661621,2.5704052448272705,0.5484541654586792
1685735002230928400,23.036928466796876,10.077520370483398,3.961130142211914,1.4088249206542969
1685735002250928400,23.056928466796876,10.297835350036621,4.347314834594727,1.258143424987793
1685735002270928400,23.076928466796875,10.126381874084473,4.188512325286865,0.47357308864593506
1685735002290928400,23.096928466796875,10.226871490478516,4.65324592590332,0.39557957649230957
1685735002310928400,23.116928466796875,9.859284400939941,4.5497589111328125,-0.11229763925075531
1685735002330928400,23.136928466796874,9.724710464477539,4.750584602355957,-0.190329447388649
1685735002350928400,23.156928466796874,9.123824119567871,4.3721184730529785,-0.5997188091278076
1685735002370928400,23.176928466796873,9.454894065856934,4.006964683532715,-0.5379197001457214
1685735002390926800,23.1969267578125,11.484612464904785,3.355224609375,-0.5875658392906189
1685735002410928400,23.216928466796876,10.51955795288086,1.2470917701721191,-1.3848732709884644
1685735002430928400,23.236928466796876,9.695358276367188,0.8010903596878052,-0.7120451927185059
1685735002450928400,23.256928466796875,8.032087326049805,1.1380311250686646,-0.14339353144168854
1685735002470928400,23.276928466796875,7.370051860809326,0.9615305662155151,0.01613691821694374
1685735002490928400,23.296928466796874,7.129108905792236,0.8506407141685486,-0.10695378482341766
1685735002510928400,23.316928466796874,7.999813079833984,0.8817844986915588,-0.35829704999923706
1685735002530928400,23.336928466796873,8.702396392822266,0.37759432196617126,-1.050345778465271
1685735002550928400,23.356928466796877,10.265896797180176,0.586378276348114,-0.49740976095199585
1685735002570928400,23.376928466796876,10.75525188446045,1.7198891639709473,0.018540697172284126
1685735002590928400,23.396928466796876,10.857599258422852,3.1324682235717773,0.7607048749923706
1685735002610928400,23.416928466796875,10.854304313659668,4.156324863433838,1.4754890203475952
1685735002630928400,23.436928466796875,10.325828552246094,4.357868671417236,1.4687182903289795
1685735002650928400,23.456928466796874,9.504405975341797,4.6821770668029785,1.123349905014038
1685735002670928400,23.476928466796874,8.641410827636719,4.610868453979492,0.3274310231208801
1685735002690928400,23.496928466796874,8.97206974029541,4.441483497619629,-0.09028055518865585
1685735002710928400,23.516928466796877,9.350823402404785,4.158967971801758,-0.44352108240127563
1685735002730928400,23.536928466796876,10.20800495147705,3.282881498336792,-0.8790742754936218
1685735002750928400,23.556928466796876,9.802857398986816,2.1437394618988037,-1.1180059909820557
1685735002770928400,23.576928466796875,9.583098411560059,1.8976250886917114,-0.6827496886253357
1685735002790928400,23.596928466796875,9.563313484191895,1.604852557182312,-0.42264363169670105
1685735002810928400,23.616928466796875,9.483711242675781,1.335840106010437,0.199417844414711
1685735002830928400,23.636928466796874,9.484553337097168,1.3181612491607666,0.5968936085700989
1685735002850928400,23.656928466796874,8.844391822814941,1.119614839553833,-0.14641021192073822
1685735002870928400,23.676928466796873,8.409709930419922,0.9581690430641174,-1.0052582025527954
1685735002890928400,23.696928466796876,9.063154220581055,0.9014073610305786,-1.1959612369537354
1685735002910928400,23.716928466796876,9.799429893493652,1.7883250713348389,-0.6642568707466125
1685735002930928400,23.736928466796876,9.957130432128906,2.6549301147460938,-0.45982080698013306
1685735002950928400,23.756928466796875,10.524652481079102,3.2458577156066895,0.03834553435444832
1685735002970928400,23.776928466796875,10.3262300491333,3.7447612285614014,0.5899695754051208
1685735002990928400,23.796928466796874,9.714828491210938,3.961225748062134,0.8161067366600037
1685735003010928400,23.816928466796874,9.624690055847168,4.287412166595459,0.8533605337142944
1685735003030928400,23.836928466796873,9.574748039245605,3.8157541751861572,0.13033077120780945
1685735003050928400,23.856928466796877,10.073258399963379,3.4762275218963623,0.22180841863155365
1685735003070928400,23.876928466796876,9.462430953979492,3.7626125812530518,0.23346339166164398
1685735003090928400,23.896928466796876,9.384810447692871,3.318009376525879,-0.3006734251976013
1685735003110928400,23.916928466796875,9.519393920898438,2.608262538909912,-0.15027925372123718
1685735003130928400,23.936928466796875,9.167886734008789,2.587289333343506,0.10092038661241531
1685735003150928400,23.956928466796874,8.957809448242188,1.8891592025756836,-0.486942321062088
1685735003170928400,23.976928466796874,8.914388656616211,1.2063041925430298,-0.9136273860931396
1685735003190928400,23.996928466796874,9.346330642700195,1.0360572338104248,-0.4209293723106384
1685735003210928400,24.016928466796877,9.325769424438477,1.426168441772461,0.006454767659306526
1685735003230928400,24.036928466796876,8.965768814086914,1.481359601020813,-0.5480902194976807
1685735003250928400,24.056928466796876,9.104583740234375,1.672196626663208,-0.7392528653144836
1685735003270928400,24.076928466796875,9.33390998840332,1.930550217628479,-0.7490978240966797
1685735003290928400,24.096928466796875,9.751985549926758,2.6962063312530518,-0.2844311594963074
1685735003310928400,24.116928466796875,10.052170753479004,3.3048410415649414,-0.02663310058414936
1685735003330928400,24.136928466796874,10.288976669311523,3.6419448852539062,0.23690147697925568
1685735003350928400,24.156928466796874,10.00185489654541,3.961264133453369,0.48541003465652466
1685735003370928400,24.176928466796873,9.53866195678711,3.783451557159424,0.19874747097492218
1685735003390926800,24.1969267578125,9.951020240783691,3.612046003341675,0.32766085863113403
1685735003410928400,24.216928466796876,9.31973648071289,3.2095038890838623,0.02727474644780159
1685735003430928400,24.236928466796876,9.089261054992676,2.7676491737365723,-0.22189460694789886
1685735003450928400,24.256928466796875,9.588567733764648,2.7018373012542725,0.03967671096324921
1685735003470928400,24.276928466796875,9.542675018310547,2.297954797744751,0.1380496621131897
1685735003490928400,24.296928466796874,9.372074127197266,2.4565370082855225,0.4606635868549347
1685735003510928400,24.316928466796874,9.148139953613281,2.0872364044189453,-0.053831230849027634
1685735003530928400,24.336928466796873,8.948644638061523,1.490208625793457,-0.5861293077468872
1685735003550928400,24.356928466796877,8.921561241149902,1.6412540674209595,-0.4086710810661316
1685735003570928400,24.376928466796876,8.916197776794434,2.1456453800201416,-0.3245483934879303
1685735003590928400,24.396928466796876,9.173440933227539,2.4027345180511475,-0.4613052010536194
1685735003610928400,24.416928466796875,9.43078899383545,2.7291600704193115,-0.2687826454639435
1685735003630928400,24.436928466796875,9.441448211669922,2.8131487369537354,-0.4914051294326782
1685735003650928400,24.456928466796874,9.576970100402832,2.943948745727539,-0.399046391248703
1685735003670928400,24.476928466796874,9.899353981018066,3.4040567874908447,0.05123591795563698
1685735003690928400,24.496928466796874,10.18843936920166,3.6548447608947754,0.420096218585968
1685735003710928400,24.516928466796877,10.077942848205566,3.6097664833068848,0.1200261265039444
1685735003730928400,24.536928466796876,9.898588180541992,2.9555270671844482,-0.3006255626678467
1685735003750928400,24.556928466796876,9.540712356567383,2.9486892223358154,0.07360734045505524
1685735003770928400,24.576928466796875,9.161643028259277,3.0343058109283447,0.012603078037500381
1685735003790928400,24.596928466796875,9.613639831542969,2.475125789642334,-0.10682927817106247
1685735003810928400,24.616928466796875,9.552558898925781,2.441415309906006,0.2201516479253769
1685735003830928400,24.636928466796874,9.193840026855469,2.2278525829315186,-0.15991351008415222
1685735003850928400,24.656928466796874,8.848615646362305,1.948975920677185,-0.8004103302955627
1685735003870928400,24.676928466796873,9.262457847595215,1.7201859951019287,-0.5600995421409607
1685735003890928400,24.696928466796876,9.245391845703125,2.5008299350738525,0.14183250069618225
1685735003910928400,24.716928466796876,8.487541198730469,2.683957576751709,-0.24395957589149475
1685735003930928400,24.736928466796876,9.236284255981445,2.4921915531158447,-0.45973461866378784
1685735003950928400,24.756928466796875,9.627975463867188,2.4607317447662354,-0.12565727531909943
1685735003970928400,24.776928466796875,9.65433120727539,2.9208014011383057,-0.007517793215811253
1685735003990928400,24.796928466796874,9.736777305603027,2.8441967964172363,-0.41468530893325806
1685735004010928400,24.816928466796874,10.014725685119629,2.839341402053833,-0.2999838888645172
1685735004030928400,24.836928466796873,9.67641544342041,3.1391146183013916,0.19134460389614105
1685735004050928400,24.856928466796877,9.610593795776367,3.6464457511901855,0.4894418716430664
1685735004070928400,24.876928466796876,9.760384559631348,3.260136365890503,0.041343074291944504
1685735004090986200,24.896986328125,9.658496856689453,2.613548755645752,-0.13453498482704163
1685735004110928400,24.916928466796875,9.642139434814453,2.8187031745910645,0.19791428744792938
1685735004130928400,24.936928466796875,9.561264038085938,2.7426154613494873,-0.3096756339073181
1685735004150928400,24.956928466796874,9.687783241271973,2.043891668319702,-0.5040848255157471
1685735004170928400,24.976928466796874,9.089338302612305,2.3637092113494873,-0.03998316824436188
1685735004190928400,24.996928466796874,8.462727546691895,2.642442226409912,-0.13279201090335846
1685735004210928400,25.016928466796877,9.075873374938965,2.5215158462524414,-0.2581236958503723
1685735004230928400,25.036928466796876,9.764636993408203,2.1639561653137207,-0.04978024214506149
1685735004250928400,25.056928466796876,9.165234565734863,2.533994436264038,-0.1196717768907547
1685735004270928400,25.076928466796875,8.838760375976562,2.703944444656372,-0.5515857338905334
1685735004290928400,25.096928466796875,10.164429664611816,2.6899142265319824,-0.3634302318096161
1685735004310928400,25.116928466796875,9.981590270996094,2.7747838497161865,0.24055981636047363
1685735004330928400,25.136928466796874,8.948224067687988,3.2619943618774414,-0.11560162901878357
1685735004350928400,25.156928466796874,9.520007133483887,2.8733294010162354,-0.41587284207344055
1685735004370928400,25.176928466796873,10.043733596801758,2.997483253479004,0.07415321469306946
1685735004390926800,25.1969267578125,9.574019432067871,3.3359081745147705,0.25377580523490906
1685735004410928400,25.216928466796876,9.490893363952637,2.7273788452148438,-0.6488669514656067
1685735004430928400,25.236928466796876,10.046252250671387,2.284231185913086,-0.4085944592952728
1685735004450928400,25.256928466796875,9.460132598876953,2.5107321739196777,-0.24923640489578247
1685735004470928400,25.276928466796875,9.198513984680176,2.552774429321289,-0.2844598889350891
