time,seconds_elapsed,z,y,x
1685734979281779200,0.087779296875,0.036302849650382996,0.014468779787421227,-0.010070549324154854
1685734979301779200,0.107779296875,0.004363323096185923,0.0005934119690209627,-0.0018151424592360854
1685734979321779200,0.127779296875,-0.027838001027703285,0.003979350905865431,0.004869468510150909
1685734979341779200,0.147779296875,-0.017784904688596725,0.02670353837311268,-0.008342674002051353
1685734979361779200,0.167779296875,0.003944444004446268,0.003176499158143997,-0.01235693134367466
1685734979381779200,0.187779296875,0.016231561079621315,-0.002373647876083851,-0.016894787549972534
1685734979401779200,0.207779296875,0.03150319308042526,0.011187560856342316,-0.005759586580097675
1685734979421779200,0.227779296875,0.019600046798586845,-0.00006981316983001307,0.0031939526088535786
1685734979441779200,0.247779296875,-0.00006981316983001307,-0.022933626547455788,0.03354522958397865
1685734979461779200,0.267779296875,-0.00799360778182745,0.006230825558304787,0.015219271183013916
1685734979481779200,0.287779296875,-0.024504423141479492,0.00331612559966743,-0.015306537039577961
1685734979501779200,0.307779296875,-0.020559977740049362,0.014590952545404434,-0.029775317758321762
1685734979521779200,0.327779296875,-0.0042236968874931335,0.0074525559321045876,-0.03605850040912628
1685734979541779200,0.347779296875,0.0007504915702156723,0.0022165682166814804,-0.04054399952292442
1685734979561779200,0.367779296875,0.002460914198309183,-0.0027925267349928617,-0.02033308520913124
1685734979581779200,0.387779296875,-0.000715585018042475,-0.0216071754693985,0.012409291230142117
1685734979601779200,0.407779296875,-0.0020943949930369854,0.0017976891249418259,0.013491394929587841
1685734979621779200,0.427779296875,-0.019233528524637222,0.011431906372308731,-0.0031415927223861217
1685734979641779200,0.447779296875,-0.022532200440764427,0.012775810435414314,-0.010157816112041473
1685734979661779200,0.467779296875,-0.014137166552245617,0.006824237294495106,-0.012950343079864979
1685734979681779200,0.487779296875,0.0020769417751580477,0.0033684854861348867,-0.0126710906624794
1685734979701779200,0.507779296875,0.004590216092765331,0.0016929693520069122,-0.013439035043120384
1685734979721779200,0.527779296875,0.01021017599850893,-0.01661553420126438,0.00376991112716496
1685734979741779200,0.547779296875,-0.010995574295520782,-0.027523841708898544,0.017558012157678604
1685734979761779200,0.567779296875,-0.003630284918472171,-0.006143558770418167,0.017959438264369965
1685734979781779200,0.587779296875,0.010402162559330463,0.008953538723289967,0.0029321531765162945
1685734979801779200,0.607779296875,-0.009861109778285027,-0.008970992639660835,-0.00038397242315113544
1685734979821779200,0.627779296875,-0.0200189258903265,-0.005759586580097675,-0.007819075137376785
1685734979841779200,0.647779296875,-0.026249751448631287,0.004712388850748539,-0.006126105785369873
1685734979861779200,0.667779296875,-0.025499260053038597,-0.0009948377264663577,-0.008133234456181526
1685734979881779200,0.687779296875,-0.00890117883682251,0.0021293016616255045,-0.015760323032736778
1685734979901779200,0.707779296875,-0.010768681764602661,0.0063355453312397,-0.023003440350294113
1685734979921779200,0.727779296875,-0.00930260494351387,-0.0073129297234117985,0.00663225119933486
1685734979941779200,0.747779296875,-0.023841196671128273,0.01993165910243988,-0.0007504915702156723
1685734979961779200,0.767779296875,-0.031066861003637314,0.03265510872006416,-0.004049163777381182
1685734979981779200,0.787779296875,-0.008761553093791008,0.03747221827507019,0.0008901178953237832
1685734980001779200,0.807779296875,-0.011554080061614513,0.02197369560599327,0.02410299703478813
1685734980021779200,0.827779296875,-0.02099631167948246,0.05108578875660896,0.0051312679424881935
1685734980041779200,0.847779296875,-0.018727382645010948,0.015934856608510017,0.00548033369705081
1685734980061779200,0.867779296875,-0.0008726646192371845,0.019303342327475548,-0.013299409300088882
1685734980081779200,0.887779296875,0.015707964077591896,0.006911503616720438,-0.00024434609804302454
1685734980101779200,0.907779296875,0.011065387167036533,0.02338741160929203,0.01516691129654646
1685734980121779200,0.927779296875,-0.002740166848525405,0.023841196671128273,0.02609267272055149
1685734980141779200,0.947779296875,-0.0131772356107831,0.006579891312867403,0.01794198527932167
1685734980161779200,0.967779296875,-0.007888888008892536,0.019826939329504967,0.007400196045637131
1685734980181779200,0.987779296875,-0.009372417815029621,0.03914773464202881,-0.016859879717230797
1685734980201779200,1.007779296875,-0.011501720175147057,0.010786134749650955,-0.00376991112716496
1685734980221779200,1.027779296875,0.00923279207199812,0.008429939858615398,-0.029164452105760574
1685734980241779200,1.047779296875,0.020298179239034653,0.033335790038108826,-0.03619812801480293
1685734980261779200,1.067779296875,-0.017034413293004036,0.008779006078839302,-0.03933972120285034
1685734980281779200,1.087779296875,-0.040858156979084015,0.003996803890913725,-0.026738444343209267
1685734980301779200,1.107779296875,-0.04256857931613922,0.028047440573573112,-0.028536133468151093
1685734980321779200,1.127779296875,-0.01492256484925747,0.028326693922281265,-0.015917403623461723
1685734980341779200,1.147779296875,0.01860520988702774,-0.017069319263100624,0.013089969754219055
1685734980361779200,1.167779296875,0.042638394981622696,-0.01820378378033638,0.025900686159729958
1685734980381779200,1.187779296875,0.026947883889079094,0.0031590459402650595,0.019984019920229912
1685734980401779200,1.207779296875,0.012304571457207203,0.0041015236638486385,0.025656340643763542
1685734980421779200,1.227779296875,0.009162978269159794,0.013526301831007004,-0.007051130291074514
1685734980441779200,1.247779296875,0.00045378561480902135,0.022916173562407494,-0.03574434295296669
1685734980461779200,1.267779296875,-0.030176742002367973,0.015358896926045418,-0.01745329238474369
1685734980481779200,1.287779296875,-0.031817350536584854,0.01682497374713421,0.008272860199213028
1685734980501779200,1.307779296875,-0.021694442257285118,-0.0003665191470645368,0.02076941728591919
1685734980521779200,1.327779296875,-0.003001966280862689,0.01837831735610962,0.02892010472714901
1685734980541779200,1.347779296875,0.007016223389655352,0.030752701684832573,0.017872171476483345
1685734980561779200,1.367779296875,0.00027925267932005227,0.03719296678900719,0.007173303049057722
1685734980581779200,1.387779296875,-0.018238689750432968,0.014137166552245617,-0.011833332479000092
1685734980601779200,1.407779296875,-0.01457349956035614,0.016632987186312675,-0.031171580776572227
1685734980621779200,1.427779296875,-0.004136430099606514,0.01794198527932167,-0.02998475730419159
1685734980641779200,1.447779296875,0.011903145350515842,-0.00548033369705081,0.016493361443281174
1685734980661779200,1.467779296875,0.025097833946347237,-0.027052603662014008,0.04937536269426346
1685734980681779200,1.487779296875,0.03338814899325371,-0.019285887479782104,0.08307766914367676
1685734980701779200,1.507779296875,0.03056071512401104,-0.0114493602886796,0.06859143823385239
1685734980721779200,1.527779296875,0.036651913076639175,-0.010698867961764336,0.02050761878490448
1685734980741779200,1.547779296875,0.009808750823140144,-0.0114493602886796,-0.034522611647844315
1685734980761779200,1.567779296875,-0.01401499379426241,0.006492624990642071,-0.04213224723935127
1685734980781779200,1.587779296875,-0.029391344636678696,-0.0006632251315750182,-0.02888519875705242
1685734980801779200,1.607779296875,0.006527531426399946,-0.014940018765628338,0.0005061454721726477
1685734980821779200,1.627779296875,0.03380702808499336,-0.019495327025651932,0.018151424825191498
1685734980841779200,1.647779296875,0.040020398795604706,-0.037978366017341614,0.06286676228046417
1685734980861779200,1.667779296875,0.024661501869559288,-0.02626720443367958,0.039671335369348526
1685734980881779200,1.687779296875,-0.00012217304902151227,-0.007504915818572044,0.003001966280862689
1685734980901779200,1.707779296875,-0.020664697512984276,0.011030481196939945,-0.038606684654951096
1685734980921779200,1.727779296875,-0.024033183231949806,0.01864011585712433,-0.06752678751945496
1685734980941779200,1.747779296875,0.0038920841179788113,0.00006981316983001307,-0.05017821490764618
1685734980961779200,1.767779296875,0.018046705052256584,0.0019373154500499368,0.011484266258776188
1685734980981779200,1.787779296875,0.02679080329835415,-0.01342158205807209,0.04731587693095207
1685734981001779200,1.807779296875,0.02972295694053173,-0.017435839399695396,0.058485984802246094
1685734981021779200,1.827779296875,0.044802602380514145,-0.013089969754219055,0.03504621237516403
1685734981041779200,1.847779296875,0.04420918971300125,-0.005078908056020737,0.023998277261853218
1685734981061779200,1.867779296875,0.019896753132343292,0.008133234456181526,-0.035587262362241745
1685734981081779200,1.887779296875,0.003089232835918665,0.025185100734233856,-0.0437728576362133
1685734981101779200,1.907779296875,-0.008621926419436932,0.026651177555322647,-0.03522074595093727
1685734981121779200,1.927779296875,-0.004206243436783552,0.007801621686667204,-0.0050090947188436985
1685734981141779200,1.947779296875,0.0154810706153512,-0.008447393774986267,0.005393067374825478
1685734981161779200,1.967779296875,0.021450096741318703,-0.004660028964281082,0.011484266258776188
1685734981181779200,1.987779296875,0.002740166848525405,0.0091455252841115,0.009826203808188438
1685734981201779200,2.007779296875,-0.006771877408027649,-0.005288347601890564,-0.016632987186312675
1685734981221779200,2.027779296875,-0.013840461149811745,-0.011554080061614513,-0.03480186685919762
1685734981241779200,2.047779296875,-0.011798425577580929,0.013002702966332436,-0.025481807067990303
1685734981261779200,2.067779296875,-0.03637266159057617,0.003717551240697503,0.005951572675257921
1685734981281779200,2.087779296875,-0.012007865123450756,0.013316862285137177,0.02586578018963337
1685734981301779200,2.107779296875,0.0080634206533432,-0.004939281847327948,0.016371188685297966
1685734981321779200,2.127779296875,0.012287117540836334,-0.004468042869120836,0.016318827867507935
1685734981341779200,2.147779296875,0.012304571457207203,0.019547687843441963,-0.0033335788175463676
1685734981361779200,2.167779296875,-0.00143117003608495,0.022602014243602753,-0.005654866807162762
1685734981381779200,2.187779296875,-0.010925761424005032,0.02649409882724285,-0.01886700838804245
1685734981401779200,2.207779296875,-0.013473941944539547,0.03050835430622101,-0.02015855349600315
1685734981421779200,2.227779296875,-0.01979203335940838,0.014311700128018856,-0.013980086892843246
1685734981441779200,2.247779296875,0.00143117003608495,0.025150194764137268,-0.01748819835484028
1685734981461779200,2.267779296875,0.025237461552023888,-0.002234021434560418,-0.022794000804424286
1685734981481779200,2.287779296875,0.04279547184705734,-0.03691371530294418,0.0033859387040138245
1685734981501779200,2.307779296875,0.05204571783542633,-0.04640830308198929,0.026337018236517906
1685734981521779200,2.327779296875,0.04426154866814613,-0.012444197200238705,0.030665434896945953
1685734981541779200,2.347779296875,0.009616764262318611,0.00038397242315113544,0.025656340643763542
1685734981561779200,2.367779296875,-0.0019198621157556772,0.0023038345389068127,0.016004668548703194
1685734981581779200,2.387779296875,-0.012095131911337376,-0.0009948377264663577,-0.0023561944253742695
1685734981601779200,2.407779296875,-0.007819075137376785,0.0014137167017906904,-0.006649704650044441
1685734981621779200,2.427779296875,0.011676252819597721,0.0028972465079277754,-0.023352505639195442
1685734981641779200,2.447779296875,0.021991148591041565,-0.0022689281031489372,-0.016266468912363052
1685734981661779200,2.467779296875,0.008499753661453724,-0.0028448866214603186,-0.013753194361925125
1685734981681779200,2.487779296875,-0.00905825849622488,0.003543018363416195,-0.013456488028168678
1685734981701779200,2.507779296875,-0.011554080061614513,0.009442231617867947,-0.004066617228090763
1685734981721779200,2.527779296875,-0.005166174378246069,0.015620696358382702,0.008709193207323551
1685734981741779200,2.547779296875,-0.014294246211647987,0.01342158205807209,0.0038920841179788113
1685734981761779200,2.567779296875,-0.0073129297234117985,0.019861847162246704,-0.007714355364441872
1685734981781779200,2.587779296875,-0.000715585018042475,0.013840461149811745,-0.016266468912363052
1685734981801779200,2.607779296875,0.006894050631672144,0.01342158205807209,-0.003909537568688393
1685734981821779200,2.627779296875,-0.0006457717972807586,0.017558012157678604,0.0007330382941290736
1685734981841779200,2.647779296875,-0.0019198621157556772,0.035639625042676926,0.00008726646046852693
1685734981861779200,2.667779296875,-0.011397000402212143,0.027977628633379936,-0.018221236765384674
1685734981881779200,2.687779296875,-0.014887658879160881,0.013735741376876831,-0.026424285024404526
1685734981901779200,2.707779296875,-0.011466813273727894,0.011885692365467548,-0.029216811060905457
1685734981921779200,2.727779296875,-0.021624628454446793,0.032096605747938156,-0.016441000625491142
1685734981941779200,2.747779296875,-0.017819812521338463,0.016755159944295883,-0.0006457717972807586
1685734981961779200,2.767779296875,-0.0024085543118417263,-0.012618730776011944,0.006422811653465033
1685734981981779200,2.787779296875,0.018151424825191498,-0.018151424825191498,-0.018151424825191498
1685734982001779200,2.807779296875,0.005270894151180983,0.01940806210041046,-0.018448129296302795
1685734982021779200,2.827779296875,-0.015847589820623398,0.03490658476948738,-0.0010122909443452954
1685734982041779200,2.847779296875,-0.011798425577580929,0.028780478984117508,0.005096361506730318
1685734982061821400,2.867821533203125,-0.016318827867507935,0.008709193207323551,-0.0005759586347267032
1685734982081779200,2.887779296875,-0.0391651876270771,0.02640683203935623,-0.014154620468616486
1685734982101779200,2.907779296875,-0.037629298865795135,0.02254965342581272,-0.022392574697732925
1685734982121779200,2.927779296875,-0.010070549324154854,-0.0006632251315750182,-0.029565878212451935
1685734982141779200,2.947779296875,0.003804817795753479,0,-0.03721041977405548
1685734982161779200,2.967779296875,-0.016510814428329468,0.020228365436196327,-0.025150194764137268
1685734982181779200,2.987779296875,-0.04375540465116501,0.02134537696838379,-0.016510814428329468
1685734982201779200,3.007779296875,-0.038868483155965805,0.008848818950355053,-0.017174039036035538
1685734982221779200,3.027779296875,-0.017819812521338463,0.005270894151180983,-0.026057764887809753
1685734982241779200,3.047779296875,0.016423547640442848,0.013596114702522755,-0.010402162559330463
1685734982261779200,3.067779296875,0.013718287460505962,-0.015795229002833366,0.018273597583174706
1685734982281779200,3.087779296875,0.0006108652451075613,-0.029513517394661903,0.03433062508702278
1685734982301779200,3.107779296875,0.003752457909286022,-0.004485496319830418,0.02010619267821312
1685734982321779200,3.127779296875,0.002775073517113924,0.002548180753365159,-0.006544984877109528
1685734982341779200,3.147779296875,-0.002373647876083851,0.0029321531765162945,-0.031520646065473557
1685734982361779200,3.167779296875,-0.011972958222031593,0.01242674421519041,-0.029042279347777367
1685734982381779200,3.187779296875,-0.024748768657445908,-0.005235987715423107,-0.005096361506730318
1685734982401779200,3.207779296875,0.0034208453726023436,-0.00006981316983001307,0.00045378561480902135
1685734982421779200,3.227779296875,0.024294983595609665,-0.009424777701497078,0.00954695139080286
1685734982441779200,3.247779296875,0.010890854522585869,-0.007627088576555252,0.018814649432897568
1685734982461779200,3.267779296875,-0.006544984877109528,0.013159782625734806,-0.004084070213139057
1685734982481779200,3.287779296875,-0.021467549726366997,0.01377064734697342,-0.014713125303387642
1685734982501779200,3.307779296875,-0.040997784584760666,0.008587019518017769,-0.023108160123229027
1685734982521779200,3.327779296875,-0.029705503955483437,0.010908307507634163,-0.030368728563189507
1685734982541779200,3.347779296875,-0.01624901592731476,-0.014974924735724926,-0.02719222940504551
1685734982561779200,3.367779296875,0.016283921897411346,-0.022113321349024773,0.006300638429820538
1685734982581779200,3.387779296875,0.021013764664530754,-0.02453932911157608,0.034260813146829605
1685734982601779200,3.407779296875,0.008098327554762363,-0.007033676840364933,0.0328296422958374
1685734982621779200,3.427779296875,0.00024434609804302454,-0.00930260494351387,0.012060225009918213
1685734982641779200,3.447779296875,-0.005305801052600145,0.0062831854447722435,-0.0063355453312397
1685734982661779200,3.467779296875,-0.009320057928562164,0.01457349956035614,-0.021467549726366997
1685734982681779200,3.487779296875,-0.0161268413066864,0.0029845130629837513,-0.017435839399695396
1685734982701779200,3.507779296875,-0.0012915435945615172,0.0013264502631500363,0.0018325956771150231
1685734982721779200,3.527779296875,0.008761553093791008,0.010908307507634163,0.014887658879160881
1685734982741779200,3.547779296875,0.0038920841179788113,-0.004974188283085823,0.0114493602886796
1685734982761779200,3.567779296875,0.006771877408027649,0.0028797932900488377,-0.00472984230145812
1685734982781779200,3.587779296875,-0.0012042771559208632,0.008831365965306759,0.004153883550316095
1685734982801779200,3.607779296875,-0.024870941415429115,0.013875367119908333,-0.004328416660428047
1685734982821779200,3.627779296875,-0.025656340643763542,0.01104793418198824,-0.02909463830292225
1685734982841779200,3.647779296875,-0.0033859387040138245,0.011554080061614513,-0.018814649432897568
1685734982861779200,3.667779296875,-0.008115780539810658,-0.001029744278639555,0.006405358202755451
1685734982881779200,3.687779296875,0.006440265104174614,-0.007260569836944342,0.012845623306930065
1685734982901779200,3.707779296875,0.013823007233440876,-0.011431906372308731,0.006352998316287994
1685734982921779200,3.727779296875,0.021467549726366997,-0.001745329238474369,0.008796459063887596
1685734982941779200,3.747779296875,0.006457718089222908,-0.0028448866214603186,-0.00823795422911644
1685734982961779200,3.767779296875,-0.0034732052590698004,0.002809980185702443,-0.014521139673888683
1685734982981779200,3.787779296875,-0.01151917316019535,0.018832102417945862,-0.018221236765384674
1685734983001779200,3.807779296875,-0.010733774863183498,0.027454029768705368,0.0005410520825535059
1685734983021779200,3.827779296875,-0.0067369709722697735,0.011152653954923153,0.003176499158143997
1685734983041779200,3.847779296875,0.019565140828490257,-0.005148721393197775,0.011798425577580929
1685734983061779200,3.867779296875,0.021764256060123444,-0.019024088978767395,0.021013764664530754
1685734983081779200,3.887779296875,0.01886700838804245,-0.002722713630646467,0.006108652334660292
1685734983101779200,3.907779296875,0.0024085543118417263,0.005811946466565132,-0.024434609338641167
1685734983121779200,3.927779296875,-0.0009599310578778386,0.016266468912363052,-0.02816961333155632
1685734983141779200,3.947779296875,-0.027803095057606697,0.02848377265036106,-0.01457349956035614
1685734983161779200,3.967779296875,-0.023335052654147148,0.025411993265151978,0.009075712412595749
1685734983181779200,3.987779296875,0.010506882332265377,-0.0016057029133662581,0.00923279207199812
1685734983201779200,4.007779296875,0.027052603662014008,-0.004834562074393034,0.011222466826438904
1685734983221779200,4.027779296875,0.01120501384139061,-0.0077841682359576225,0.013631021603941917
1685734983241779200,4.047779296875,0.003054326167330146,0.00013962633966002613,0.006963863503187895
1685734983261779200,4.067779296875,-0.0028448866214603186,0.0006806784076616168,-0.003281218931078911
1685734983281779200,4.087779296875,-0.016179202124476433,0.009616764262318611,-0.00617846567183733
1685734983301779200,4.107779296875,-0.017121680080890656,0.004345869645476341,-0.0018151424592360854
1685734983321779200,4.127779296875,-0.009424777701497078,0.009407324716448784,-0.002914699725806713
1685734983341779200,4.147779296875,-0.0021118484437465668,0.0080634206533432,0.00010471975838299841
1685734983361779200,4.167779296875,-0.00010471975838299841,0.0008901178953237832,0.00331612559966743
1685734983381779200,4.187779296875,0.00815068744122982,-0.015515976585447788,-0.00038397242315113544
1685734983401779200,4.207779296875,0.006527531426399946,-0.012828170321881771,0.007923794910311699
1685734983421779200,4.227779296875,-0.008377579972147942,-0.006963863503187895,0.004084070213139057
1685734983441779200,4.247779296875,-0.014695672318339348,0.011920598335564137,-0.007487462367862463
1685734983461779200,4.267779296875,-0.014398965984582901,0.005916666239500046,-0.01802925020456314
1685734983481779200,4.287779296875,-0.010838494636118412,0.009267698042094707,-0.005951572675257921
1685734983501779200,4.307779296875,0.007958701811730862,0.002740166848525405,0.0068765971809625626
1685734983521779200,4.327779296875,0.02356194518506527,-0.008621926419436932,0.007365289609879255
1685734983541779200,4.347779296875,0.020385446026921272,-0.022619467228651047,0.013980086892843246
1685734983561779200,4.367779296875,0.007103490177541971,0.009337511844933033,0.010157816112041473
1685734983581779200,4.387779296875,-0.0026179938577115536,0.005270894151180983,-0.006108652334660292
1685734983601779200,4.407779296875,0.0012915435945615172,0.008272860199213028,-0.015446163713932037
1685734983621779200,4.427779296875,-0.000715585018042475,0.006824237294495106,0.00045378561480902135
1685734983641779200,4.447779296875,0.00708603672683239,0.021467549726366997,0.01563815027475357
1685734983661779200,4.467779296875,0.016528267413377762,-0.0035953782498836517,0.01333431527018547
1685734983681779200,4.487779296875,0.02338741160929203,0.0012915435945615172,0.014695672318339348
1685734983701779200,4.507779296875,0.009162978269159794,0.00031415926059708,0.006527531426399946
1685734983721779200,4.527779296875,-0.00799360778182745,-0.0263544712215662,0.028099801391363144
1685734983741779200,4.547779296875,-0.012304571457207203,-0.01120501384139061,0.011397000402212143
1685734983761779200,4.567779296875,-0.009267698042094707,0.015463616698980331,-0.018901916220784187
1685734983781779200,4.587779296875,-0.027296949177980423,0.012007865123450756,-0.025237461552023888
1685734983801779200,4.607779296875,-0.026546457782387733,0.0045378562062978745,-0.009738937020301819
1685734983821779200,4.627779296875,-0.005340707488358021,-0.00839503388851881,0.006824237294495106
1685734983841779200,4.647779296875,0.006981316953897476,-0.011222466826438904,0.011100294068455696
1685734983861779200,4.667779296875,0.022252947092056274,-0.03015928901731968,0.006998770404607058
1685734983881779200,4.687779296875,0.03380702808499336,-0.012007865123450756,0.0007679448463022709
1685734983901779200,4.707779296875,0.016929693520069122,0.004328416660428047,-0.005113814491778612
1685734983921779200,4.727779296875,-0.01333431527018547,0.021729348227381706,-0.0033335788175463676
1685734983941779200,4.747779296875,-0.027715828269720078,0.017086774110794067,-0.015620696358382702
1685734983961779200,4.767779296875,-0.028239427134394646,0.007661995477974415,-0.009477137587964535
1685734983981779200,4.787779296875,-0.00898844562470913,-0.005689773242920637,-0.0014486232539638877
1685734984001779200,4.807779296875,0.014224433340132236,-0.0060388389974832535,0.003403391921892762
1685734984021779200,4.827779296875,0.026389379054307938,-0.03574434295296669,0.010279988870024681
1685734984041779200,4.847779296875,0.013229595497250557,-0.013823007233440876,0.00205948855727911
1685734984061779200,4.867779296875,0.0009250245057046413,0.003281218931078911,-0.008691739290952682
1685734984081779200,4.887779296875,-0.026895523071289062,0.006387905217707157,-0.006998770404607058
1685734984101779200,4.907779296875,-0.039531707763671875,0.0007853981805965304,-0.0071907564997673035
1685734984121779200,4.927779296875,-0.03070034086704254,0.005270894151180983,-0.0017627825727686286
1685734984141779200,4.947779296875,-0.006265731994062662,-0.009564404375851154,0.0008377580670639873
1685734984161779200,4.967779296875,0.021275563165545464,-0.015760323032736778,0.00003490658491500653
1685734984181779200,4.987779296875,0.010943214409053326,-0.017069319263100624,0.008709193207323551
1685734984201779200,5.007779296875,0.006649704650044441,-0.0027925267349928617,0.007225662935525179
1685734984221779200,5.027779296875,-0.02099631167948246,-0.017575465142726898,-0.00923279207199812
1685734984241779200,5.047779296875,-0.027209682390093803,0.004607669077813625,-0.01401499379426241
1685734984261779200,5.067779296875,-0.016807520762085915,0.00027925267932005227,-0.010175269097089767
1685734984281779200,5.087779296875,-0.0013962633674964309,-0.002234021434560418,-0.009424777701497078
1685734984301779200,5.107779296875,0.01630137488245964,-0.019320795312523842,-0.006771877408027649
1685734984321779200,5.127779296875,0.032882001250982285,-0.014451325871050358,0.006928957067430019
1685734984341779200,5.147779296875,0.02241002768278122,-0.01825614459812641,-0.0021293016616255045
1685734984361779200,5.167779296875,0.01797689124941826,-0.006771877408027649,-0.003717551240697503
1685734984381779200,5.187779296875,0.008133234456181526,-0.0017802357906475663,-0.010402162559330463
1685734984401779200,5.207779296875,-0.006405358202755451,0.012007865123450756,-0.007731808349490166
1685734984421779200,5.227779296875,-0.018744835630059242,0.009407324716448784,-0.015655603259801865
1685734984441779200,5.247779296875,-0.0091455252841115,-0.0010122909443452954,-0.00663225119933486
1685734984461779200,5.267779296875,0.009023352526128292,0.0008552113431505859,0.005375613924115896
1685734984481779200,5.287779296875,0.024609142914414406,0.001483529806137085,0.005235987715423107
1685734984501779200,5.307779296875,0.035150930285453796,-0.02241002768278122,0.0013089969288557768
1685734984521779200,5.327779296875,0.02790781483054161,-0.0161268413066864,0.0026179938577115536
1685734984541779200,5.347779296875,-0.009948376566171646,-0.010384708642959595,0.004712388850748539
1685734984561779200,5.367779296875,-0.022532200440764427,0.02382374368607998,-0.009669124148786068
1685734984581779200,5.387779296875,-0.00205948855727911,0.02457423508167267,-0.026738444343209267
1685734984601779200,5.407779296875,-0.008587019518017769,0.009634217247366905,-0.02117084339261055
1685734984621779200,5.427779296875,-0.009913469664752483,-0.0012391837080940604,-0.016999507322907448
1685734984641779200,5.447779296875,0.006806783843785524,-0.0008552113431505859,-0.011554080061614513
1685734984661779200,5.467779296875,0.020525071769952774,-0.010437068529427052,-0.0014137167017906904
1685734984681779200,5.487779296875,0.02790781483054161,-0.001483529806137085,0.01377064734697342
1685734984701779200,5.507779296875,-0.0049916417337954044,-0.005445427261292934,0.022689281031489372
1685734984721779200,5.527779296875,-0.03134611248970032,0.006649704650044441,0.0005759586347267032
1685734984741779200,5.547779296875,-0.03003711625933647,0.006579891312867403,-0.036686819046735764
1685734984761779200,5.567779296875,-0.021101031452417374,0.01021017599850893,-0.04075343906879425
1685734984781779200,5.587779296875,-0.005270894151180983,-0.0025830871891230345,-0.02082177810370922
1685734984801779200,5.607779296875,0.003263765713199973,-0.02019345946609974,0.014870204962790012
1685734984821779200,5.627779296875,0.005218534264713526,-0.014974924735724926,0.026162484660744667
1685734984841779200,5.647779296875,0.012723450548946857,-0.022479841485619545,0.018657568842172623
1685734984861779200,5.667779296875,0.02263692021369934,-0.024783674627542496,-0.005201081279665232
1685734984881779200,5.687779296875,-0.0004886921960860491,0.003089232835918665,-0.005340707488358021
1685734984901779200,5.707779296875,-0.03497639670968056,0.004869468510150909,0.0023038345389068127
1685734984921779200,5.727779296875,-0.027803095057606697,0.01855284906923771,-0.00609119888395071
1685734984941779200,5.747779296875,-0.0008203047327697277,-0.002007128670811653,-0.006998770404607058
1685734984961779200,5.767779296875,0.019216075539588928,-0.008639379404485226,0.00890117883682251
1685734984981779200,5.787779296875,0.01326450239866972,-0.018395770341157913,0.013718287460505962
1685734985001779200,5.807779296875,0.008866272866725922,-0.03047344833612442,0.01909390278160572
1685734985021779200,5.827779296875,0.0042236968874931335,-0.011885692365467548,-0.0005061454721726477
1685734985041779200,5.847779296875,0.006073745898902416,0.011327186599373817,-0.00945968460291624
1685734985061779200,5.867779296875,-0.00815068744122982,0.0010122909443452954,-0.012444197200238705
1685734985081779200,5.887779296875,-0.0007504915702156723,0.008848818950355053,-0.0006632251315750182
1685734985101779200,5.907779296875,0.00015707963029854,-0.015847589820623398,0.01211258489638567
1685734985121779200,5.927779296875,-0.015201817266643047,-0.028640853241086006,0.019058994948863983
1685734985141779200,5.947779296875,-0.020437804982066154,-0.023369958624243736,0.002548180753365159
1685734985161779200,5.967779296875,-0.0019024088978767395,-0.008482299745082855,0.005846852902323008
1685734985181779200,5.987779296875,-0.015760323032736778,-0.008098327554762363,-0.00427605677396059
1685734985201779200,6.007779296875,-0.016179202124476433,0.005916666239500046,-0.008569566532969475
1685734985221779200,6.027779296875,-0.021851522848010063,-0.00017453292093705386,-0.0023911010939627886
1685734985241779200,6.047779296875,-0.025987952947616577,-0.00043633230961859226,0.013648474588990211
1685734985261779200,6.067779296875,-0.010576695203781128,-0.0008203047327697277,0.0041015236638486385
1685734985281779200,6.087779296875,0.012409291230142117,-0.010925761424005032,-0.0017627825727686286
1685734985301779200,6.107779296875,0.006248278543353081,-0.012985249981284142,-0.004694935865700245
1685734985321779200,6.127779296875,-0.006126105785369873,0.004258603323251009,-0.004450589418411255
1685734985341779200,6.147779296875,-0.002775073517113924,-0.006963863503187895,-0.008691739290952682
1685734985361779200,6.167779296875,0.007295476272702217,0.00094247778179124,-0.002740166848525405
1685734985381779200,6.187779296875,0.00593411922454834,0.00457276264205575,0.00593411922454834
1685734985401779200,6.207779296875,-0.009075712412595749,0.000715585018042475,0.015411256812512875
1685734985421779200,6.227779296875,0.005986479111015797,-0.0017278759041801095,0.008342674002051353
1685734985441779200,6.247779296875,0.014102260582149029,-0.0026179938577115536,0.0034732052590698004
1685734985461779200,6.267779296875,0.003089232835918665,-0.021816615015268326,0.00013962633966002613
1685734985481779200,6.287779296875,0.006370451766997576,-0.013439035043120384,-0.0008901178953237832
1685734985501779200,6.307779296875,0.008220500312745571,-0.0023387412074953318,0.0007853981805965304
1685734985521779200,6.327779296875,-0.012897983193397522,0.010070549324154854,0.0008726646192371845
1685734985541779200,6.347779296875,-0.019634954631328583,0.0020943949930369854,-0.0023038345389068127
1685734985561779200,6.367779296875,-0.00808087456971407,-0.0015707963611930609,-0.004485496319830418
1685734985581779200,6.387779296875,0.0024085543118417263,-0.010035643354058266,-0.002146754879504442
1685734985601779200,6.407779296875,0.022427480667829514,-0.014643312431871891,0.007661995477974415
1685734985621779200,6.427779296875,0.018186330795288086,-0.020437804982066154,0.006894050631672144
1685734985641779200,6.447779296875,-0.0026703537441790104,-0.019984019920229912,0.018413223326206207
1685734985661779200,6.467779296875,-0.036861352622509,0.0010995573829859495,0.01811651699244976
1685734985681779200,6.487779296875,-0.03363249450922012,0.015114551410079002,0.011623892933130264
1685734985701779200,6.507779296875,-0.009442231617867947,0.0024260077625513077,-0.02427753061056137
1685734985721777700,6.527777587890625,0.0038920841179788113,0.01012290921062231,-0.02439970336854458
1685734985741779200,6.547779296875,0.00251327408477664,0.009197885170578957,-0.010105456225574017
1685734985761779200,6.567779296875,0.01310742273926735,-0.0031590459402650595,0.013212142512202263
1685734985781779200,6.587779296875,0.015830136835575104,-0.017872171476483345,0.02258456125855446
1685734985801779200,6.607779296875,0.004782202187925577,-0.01457349956035614,0.02364921197295189
1685734985821777700,6.627777587890625,0.013281955383718014,-0.012147491797804832,0.0018500490114092827
1685734985841779200,6.647779296875,0.009023352526128292,0.006248278543353081,-0.018989183008670807
1685734985861779200,6.667779296875,-0.006544984877109528,0.026424285024404526,-0.02007128670811653
1685734985881779200,6.687779296875,-0.029024824500083923,0.02042035199701786,-0.02090904489159584
1685734985901779200,6.707779296875,-0.01160643994808197,-0.0011344640515744686,-0.015428710728883743
1685734985921779200,6.727779296875,0.011780972592532635,-0.005742133129388094,-0.00006981316983001307
1685734985941779200,6.747779296875,0.02445206232368946,-0.00518362782895565,0.017418386414647102
1685734985961779200,6.767779296875,0.016929693520069122,-0.008447393774986267,0.013910274021327496
1685734985981779200,6.787779296875,0.014067353680729866,-0.006021386012434959,-0.010978121310472488
1685734986001779200,6.807779296875,0.00753982225432992,0.019547687843441963,-0.019687313586473465
1685734986021779200,6.827779296875,-0.017156586050987244,0.015219271183013916,-0.02307325229048729
1685734986041779200,6.847779296875,-0.019652407616376877,0.02068215236067772,-0.024068091064691544
1685734986061779200,6.867779296875,0.00041887903353199363,-0.007819075137376785,-0.0063355453312397
1685734986081779200,6.887779296875,0.01401499379426241,-0.005323254037648439,0.015132004395127296
1685734986101779200,6.907779296875,0.019163714721798897,-0.010838494636118412,0.017749998718500137
1685734986121779200,6.927779296875,0.020123645663261414,-0.013439035043120384,0.01251401100307703
1685734986141779200,6.947779296875,0.00457276264205575,-0.004293509759008884,-0.0006457717972807586
1685734986161779200,6.967779296875,-0.02687807008624077,0.010821041651070118,-0.015219271183013916
1685734986181779200,6.987779296875,-0.01740093342959881,0.0019373154500499368,-0.019285887479782104
1685734986201779200,7.007779296875,0.0005235987482592463,0.02342231757938862,-0.01457349956035614
1685734986221779200,7.027779296875,0.007819075137376785,0.0009250245057046413,-0.002146754879504442
1685734986241779200,7.047779296875,0.01595230959355831,0.0017976891249418259,0.008761553093791008
1685734986261779200,7.067779296875,0.030455995351076126,-0.004241149872541428,0.00006981316983001307
1685734986281779200,7.087779296875,0.02577851340174675,-0.009529497474431992,0.01151917316019535
1685734986301779200,7.107779296875,0.003351032268255949,-0.0031066860537976027,-0.004380776546895504
1685734986321779200,7.127779296875,-0.003804817795753479,0.0142593402415514,-0.01129228062927723
1685734986341779200,7.147779296875,-0.011013027280569077,0.004084070213139057,-0.01061160210520029
1685734986361779200,7.167779296875,-0.013805554248392582,0.01441641990095377,-0.011170106939971447
1685734986381779200,7.187779296875,0,-0.004502949304878712,-0.012950343079864979
1685734986401779200,7.207779296875,0.025813419371843338,-0.008639379404485226,-0.002251474652439356
1685734986421779200,7.227779296875,0.029042279347777367,-0.010192723013460636,0.011554080061614513
1685734986441779200,7.247779296875,0.010157816112041473,-0.012409291230142117,0.0216071754693985
1685734986461779200,7.267779296875,-0.0023561944253742695,-0.014643312431871891,0.0023911010939627886
1685734986481779200,7.287779296875,-0.015306537039577961,0.0016057029133662581,-0.005777040030807257
1685734986501779200,7.307779296875,-0.03228859230875969,0.010349802672863007,-0.013281955383718014
1685734986521779200,7.327779296875,-0.023439772427082062,0.016545720398426056,-0.01516691129654646
1685734986541779200,7.347779296875,-0.004188789986073971,-0.004607669077813625,-0.003455751808360219
1685734986561779200,7.367779296875,0.005305801052600145,-0.00769690191373229,0.016667895019054413
1685734986581779200,7.387779296875,-0.0038920841179788113,-0.0154810706153512,0.02378883771598339
1685734986601779200,7.407779296875,0.0009075712296180427,0.00008726646046852693,0.017261305823922157
1685734986621779200,7.427779296875,-0.0014660765882581472,0.0024085543118417263,-0.003804817795753479
1685734986641779200,7.447779296875,-0.021868975833058357,0.016423547640442848,0.007417649496346712
1685734986661779200,7.467779296875,-0.022933626547455788,0.007033676840364933,0.012461651116609573
1685734986681779200,7.487779296875,0.000017453292457503267,0.006824237294495106,-0.02028072625398636
1685734986701779200,7.507779296875,0.006562437862157822,-0.00043633230961859226,-0.026912976056337357
1685734986721779200,7.527779296875,0.0017278759041801095,0.0014137167017906904,-0.0012217304902151227
1685734986741779200,7.547779296875,0.013055062852799892,-0.009180432185530663,0.01045452244579792
1685734986761779200,7.567779296875,0.011397000402212143,-0.002827433403581381,0.018221236765384674
1685734986781779200,7.587779296875,-0.0008028514566831291,-0.01563815027475357,0.01473057921975851
1685734986801779200,7.607779296875,0.00989601667970419,-0.0028972465079277754,-0.0039618974551558495
1685734986821779200,7.627779296875,0.0006108652451075613,0.012391837313771248,-0.028728120028972626
1685734986841779200,7.647779296875,-0.01171115878969431,0.017837265506386757,-0.015097098425030708
1685734986861779200,7.667779296875,-0.014398965984582901,0.008133234456181526,-0.013055062852799892
1685734986881779200,7.687779296875,0.003176499158143997,-0.007138396613299847,-0.005515240598469973
1685734986901779200,7.707779296875,0.020978856831789017,-0.00609119888395071,0.0016929693520069122
1685734986921779200,7.727779296875,0.01820378378033638,-0.011571533046662807,0.025743605569005013
1685734986941779200,7.747779296875,0.009843656793236732,-0.015132004395127296,0.018884463235735893
1685734986961779200,7.767779296875,0.010733774863183498,-0.00045378561480902135,-0.015969762578606606
1685734986981779200,7.787779296875,-0.004642575979232788,0.0027052604127675295,-0.03113667294383049
1685734987001779200,7.807779296875,-0.022706734016537666,0.021799162030220032,-0.02888519875705242
1685734987021779200,7.827779296875,-0.008779006078839302,0.007976154796779156,-0.0190066359937191
1685734987041779200,7.847779296875,0.008534659631550312,-0.006265731994062662,0.0006108652451075613
1685734987061821400,7.867821533203125,0.013055062852799892,-0.008604473434388638,0.017558012157678604
1685734987081779200,7.887779296875,0.010698867961764336,-0.018971728160977364,0.023404864594340324
1685734987101779200,7.907779296875,0.009337511844933033,-0.011536626145243645,0.009634217247366905
1685734987121779200,7.927779296875,-0.006544984877109528,0.02033308520913124,-0.008621926419436932
1685734987141779200,7.947779296875,-0.031293753534555435,0.009616764262318611,-0.01975712738931179
1685734987161779200,7.967779296875,-0.03033382259309292,0.008569566532969475,-0.03424336016178131
1685734987181779200,7.987779296875,-0.0073303827084600925,-0.0057246801443398,-0.013386675156652927
1685734987201779200,8.007779296875,0.009634217247366905,-0.005288347601890564,0.014905111864209175
1685734987221779200,8.027779296875,0.009948376566171646,-0.01771509274840355,0.02148500271141529
1685734987241779200,8.047779296875,0.011798425577580929,-0.012566370889544487,0.011414453387260437
1685734987261779200,8.067779296875,0.006126105785369873,0.0044156829826533794,-0.008953538723289967
1685734987281779200,8.087779296875,-0.029740409925580025,0.014521139673888683,-0.013665927574038506
1685734987301779200,8.107779296875,-0.0302465558052063,0.0055850534699857235,-0.01984439417719841
1685734987321779200,8.127779296875,-0.012461651116609573,0.014364060014486313,-0.01021017599850893
1685734987341779200,8.147779296875,-0.0013788101496174932,-0.006771877408027649,0.009634217247366905
1685734987361779200,8.167779296875,0.020612338557839394,-0.012077677994966507,0.017331119626760483
1685734987381779200,8.187779296875,0.027262043207883835,-0.01638864167034626,0.02117084339261055
1685734987401779200,8.207779296875,0.011030481196939945,-0.015358896926045418,0.025900686159729958
1685734987421779200,8.227779296875,-0.009180432185530663,0,0.002827433403581381
1685734987441779200,8.247779296875,-0.017243852838873863,0.01012290921062231,-0.02010619267821312
1685734987461779200,8.267779296875,-0.01532399095594883,0.012985249981284142,-0.01797689124941826
1685734987481779200,8.287779296875,-0.01719149388372898,0.021624628454446793,-0.005218534264713526
1685734987501779200,8.307779296875,-0.010768681764602661,-0.010035643354058266,0.004310963209718466
1685734987521779200,8.327779296875,0.023335052654147148,-0.012810716405510902,0.009826203808188438
1685734987541779200,8.347779296875,0.025813419371843338,-0.010576695203781128,0.01448623277246952
1685734987561779200,8.367779296875,0.004834562074393034,-0.005166174378246069,0.013386675156652927
1685734987581779200,8.387779296875,-0.003717551240697503,-0.004380776546895504,0.00013962633966002613
1685734987601779200,8.407779296875,-0.008534659631550312,0.01912880875170231,-0.013665927574038506
1685734987621779200,8.427779296875,-0.023893557488918304,0.01846558414399624,0.00003490658491500653
1685734987641779200,8.447779296875,-0.019896753132343292,0.007853982038795948,0.0004886921960860491
1685734987661779200,8.467779296875,0.00427605677396059,-0.005550147034227848,-0.015620696358382702
1685734987681779200,8.487779296875,0.03529055789113045,-0.005777040030807257,-0.0037000980228185654
1685734987701779200,8.507779296875,0.02157226949930191,-0.010576695203781128,0.020612338557839394
1685734987721779200,8.527779296875,-0.0007330382941290736,-0.012793263420462608,0.02715732343494892
1685734987741779200,8.547779296875,-0.028989918529987335,-0.045640360563993454,0.06764896214008331
1685734987761779200,8.567779296875,0.007801621686667204,0.03277728334069252,0.00815068744122982
1685734987781779200,8.587779296875,0.0018500490114092827,-0.007295476272702217,-0.015585790388286114
1685734987801779200,8.607779296875,0.0018151424592360854,0.0033684854861348867,-0.02857103943824768
1685734987821779200,8.627779296875,-0.0012217304902151227,0.008098327554762363,-0.017470745369791985
1685734987841779200,8.647779296875,0.0012391837080940604,-0.00043633230961859226,0.008342674002051353
1685734987861779200,8.667779296875,0.01563815027475357,-0.013857914134860039,0.00945968460291624
1685734987881779200,8.687779296875,0.021188296377658844,-0.011414453387260437,0.025150194764137268
1685734987901779200,8.707779296875,0.0005410520825535059,-0.0024434609804302454,0.025848325341939926
1685734987921779200,8.727779296875,-0.013369222171604633,0.0060388389974832535,-0.0015707963611930609
1685734987941779200,8.747779296875,-0.013823007233440876,0.01251401100307703,-0.038467057049274445
1685734987961779200,8.767779296875,-0.010594148188829422,0.016406094655394554,-0.024870941415429115
1685734987981779200,8.787779296875,-0.009721484035253525,0.006894050631672144,-0.011501720175147057
1685734988001779200,8.807779296875,0.0047996556386351585,-0.004921828396618366,-0.0005235987482592463
1685734988021779200,8.827779296875,0.020176006481051445,-0.013526301831007004,0.016947146505117416
1685734988041779200,8.847779296875,0.008220500312745571,-0.0031066860537976027,0.02701769582927227
1685734988061779200,8.867779296875,-0.006981316953897476,-0.0021642083302140236,0.0031590459402650595
1685734988081779200,8.887779296875,-0.009529497474431992,0.010576695203781128,-0.019076447933912277
1685734988101779200,8.907779296875,-0.027838001027703285,0.014538592658936977,-0.03131120651960373
1685734988121779200,8.927779296875,-0.043476153165102005,0.022026054561138153,-0.03354522958397865
1685734988141779200,8.947779296875,-0.01603957638144493,0.003630284918472171,-0.026162484660744667
1685734988161779200,8.967779296875,0.02586578018963337,-0.017470745369791985,0.016231561079621315
1685734988181779200,8.987779296875,0.0383099764585495,-0.022776545956730843,0.0455181859433651
1685734988201779200,9.007779296875,0.02857103943824768,-0.02422516979277134,0.044540803879499435
1685734988221779200,9.027779296875,0.0038746309000998735,-0.018011797219514847,0.010629055090248585
1685734988241779200,9.047779296875,-0.0213104709982872,0.014468779787421227,-0.01532399095594883
1685734988261779200,9.067779296875,-0.03907792270183563,0.00945968460291624,-0.03874630853533745
1685734988281779200,9.087779296875,-0.029112091287970543,-0.0031241392716765404,-0.036128316074609756
1685734988301779200,9.107779296875,0.0044156829826533794,-0.014451325871050358,-0.01869247667491436
1685734988321779200,9.127779296875,0.024434609338641167,-0.009512044489383698,0.014311700128018856
1685734988341779200,9.147779296875,0.014294246211647987,-0.01864011585712433,0.027227135375142097
1685734988361779200,9.167779296875,0.016667895019054413,-0.014817845076322556,0.029077185317873955
1685734988381779200,9.187779296875,0.00923279207199812,0.0045378562062978745,-0.01080358773469925
1685734988401779200,9.207779296875,-0.012304571457207203,0.00938987173140049,-0.026546457782387733
1685734988421779200,9.227779296875,-0.02387610450387001,-0.001658062799833715,-0.03827507048845291
1685734988441779200,9.247779296875,-0.0057246801443398,0.02085668407380581,-0.019722219556570053
1685734988461779200,9.267779296875,0.005288347601890564,-0.00010471975838299841,0.006422811653465033
1685734988481779200,9.287779296875,0.01788962446153164,-0.012723450548946857,0.025097833946347237
1685734988501779200,9.307779296875,0.025586526840925217,-0.012758356519043446,0.017383478581905365
1685734988521779200,9.327779296875,0.017383478581905365,-0.0012740903766825795,0.01572541706264019
1685734988541779200,9.347779296875,-0.010279988870024681,-0.01616174913942814,0.006527531426399946
1685734988561779200,9.367779296875,-0.008569566532969475,0.00411897711455822,-0.012548916973173618
1685734988581779200,9.387779296875,-0.010541788302361965,0.01096066739410162,-0.015271631069481373
1685734988601779200,9.407779296875,-0.006667157635092735,0.003508111694827676,0.01719149388372898
1685734988621779200,9.427779296875,0.00609119888395071,0.0011693706037476659,0.008604473434388638
1685734988641779200,9.447779296875,0.017243852838873863,-0.013491394929587841,-0.0014137167017906904
1685734988661779200,9.467779296875,0.017749998718500137,-0.006108652334660292,-0.004485496319830418
1685734988681779200,9.487779296875,0.005113814491778612,-0.00022689280740451068,0.007679448463022709
1685734988701779200,9.507779296875,-0.011536626145243645,-0.0019373154500499368,-0.001343903481028974
1685734988721779200,9.527779296875,-0.014224433340132236,0.018046705052256584,-0.008779006078839302
1685734988741779200,9.547779296875,-0.003054326167330146,0.026110125705599785,-0.020804325118660927
1685734988761779200,9.567779296875,0.003490658476948738,0.004049163777381182,-0.013735741376876831
1685734988781779200,9.587779296875,0.019809486344456673,0.01392772700637579,-0.0050090947188436985
1685734988801779200,9.607779296875,0.013229595497250557,0.013142329640686512,0.019565140828490257
1685734988821779200,9.627779296875,-0.0080634206533432,0.009721484035253525,0.019477874040603638
1685734988841779200,9.647779296875,-0.006195918656885624,0.012479104101657867,-0.007347836159169674
1685734988861779200,9.667779296875,-0.013404129073023796,-0.003577925032004714,-0.015934856608510017
1685734988881779200,9.687779296875,-0.019198622554540634,0.007819075137376785,-0.015009831637144089
1685734988901779200,9.707779296875,-0.016807520762085915,0.0015533430268988013,-0.02488839440047741
1685734988921779200,9.727779296875,0.003263765713199973,0.00019198621157556772,-0.018448129296302795
1685734988941779200,9.747779296875,0.010943214409053326,-0.0016406094655394554,-0.00017453292093705386
1685734988961779200,9.767779296875,0.0006981316837482154,-0.00331612559966743,0.008761553093791008
1685734988981779200,9.787779296875,0.00041887903353199363,-0.005340707488358021,0.00799360778182745
1685734989001779200,9.807779296875,0.004066617228090763,0.0033859387040138245,0.0027052604127675295
1685734989021779200,9.827779296875,-0.0075747291557490826,0.002321287989616394,-0.0013264502631500363
1685734989041779200,9.847779296875,-0.01975712738931179,0.021676989272236824,-0.015376350842416286
1685734989061779200,9.867779296875,-0.014748032204806805,0.011222466826438904,-0.034924037754535675
1685734989081779200,9.887779296875,-0.006405358202755451,0.00823795422911644,-0.021676989272236824
1685734989101779200,9.907779296875,-0.004590216092765331,0.008499753661453724,-0.017907077446579933
1685734989121779200,9.927779296875,0.008325220085680485,-0.0033684854861348867,-0.003752457909286022
1685734989141779200,9.947779296875,0.012147491797804832,-0.015149458311498165,0.009983283467590809
1685734989161779200,9.967779296875,0.001117010717280209,-0.003403391921892762,0.019861847162246704
1685734989181779200,9.987779296875,-0.0103672556579113,0.00017453292093705386,0.00047123889089562
1685734989201779200,10.007779296875,-0.00027925267932005227,0.01762782596051693,-0.019652407616376877
1685734989221779200,10.027779296875,-0.009599311277270317,0.012147491797804832,-0.023143066093325615
1685734989241779200,10.047779296875,-0.017470745369791985,0.0050090947188436985,-0.00029670598451048136
1685734989261779200,10.067779296875,-0.003926991019397974,-0.00019198621157556772,-0.0012391837080940604
1685734989281779200,10.087779296875,0.02378883771598339,0.0015009831404313445,-0.00024434609804302454
1685734989301779200,10.107779296875,0.017034413293004036,-0.013718287460505962,0.010698867961764336
1685734989321779200,10.127779296875,0.008098327554762363,-0.009599311277270317,0.014678219333291054
1685734989341779200,10.147779296875,0.00045378561480902135,-0.011658798903226852,0.006073745898902416
1685734989361779200,10.167779296875,-0.000715585018042475,0.013456488028168678,0.0024085543118417263
1685734989381779200,10.187779296875,-0.009913469664752483,0.02134537696838379,-0.012077677994966507
1685734989401779200,10.207779296875,-0.012897983193397522,0.006492624990642071,-0.015865042805671692
1685734989421779200,10.227779296875,-0.0031939526088535786,-0.014800392091274261,-0.0026354470755904913
1685734989441779200,10.247779296875,0.014224433340132236,-0.012130037881433964,0.016057029366493225
1685734989461779200,10.267779296875,0.019373154267668724,-0.007487462367862463,0.020036378875374794
1685734989481779200,10.287779296875,0.02007128670811653,0.007557275705039501,0.0067544239573180676
1685734989501779200,10.307779296875,-0.00518362782895565,0.000715585018042475,0.007278022821992636
1685734989521779200,10.327779296875,-0.017505653202533722,0.012618730776011944,0.004485496319830418
1685734989541779200,10.347779296875,-0.013386675156652927,0.018360864371061325,-0.023841196671128273
1685734989561779200,10.367779296875,-0.0012042771559208632,0.015201817266643047,-0.03356268256902695
1685734989581779200,10.387779296875,0.00047123889089562,0.0011519172694534063,-0.010751227848231792
1685734989601779200,10.407779296875,0.006963863503187895,-0.007819075137376785,0.015219271183013916
1685734989621779200,10.427779296875,0.007033676840364933,-0.006859143730252981,0.010978121310472488
1685734989641779200,10.447779296875,0.011013027280569077,-0.0026354470755904913,0.02741912193596363
1685734989661779200,10.467779296875,0.001483529806137085,-0.008499753661453724,0.0030717793852090836
1685734989681779200,10.487779296875,0.00010471975838299841,0.014817845076322556,-0.02427753061056137
1685734989701779200,10.507779296875,-0.014049900695681572,0.0021293016616255045,-0.02609267272055149
1685734989721779200,10.527779296875,-0.018064158037304878,0.018273597583174706,-0.011990412138402462
1685734989741779200,10.547779296875,-0.0037350046914070845,0.00010471975838299841,-0.004066617228090763
1685734989761779200,10.567779296875,0.0286583062261343,-0.019425515085458755,0.010629055090248585
1685734989781779200,10.587779296875,0.03073524869978428,-0.008517206646502018,0.029914943501353264
1685734989801779200,10.607779296875,0.02045525796711445,-0.010855947621166706,0.030019663274288177
1685734989821779200,10.627779296875,0.00855211354792118,-0.012496557086706161,-0.009634217247366905
1685734989841779200,10.647779296875,-0.0028623400721699,0.006370451766997576,-0.028187068179249763
1685734989861779200,10.667779296875,-0.024521876126527786,0.00411897711455822,-0.0262148454785347
1685734989881779200,10.687779296875,-0.028204521164298058,0.017732545733451843,-0.01516691129654646
1685734989901779200,10.707779296875,0.0008901178953237832,-0.0028448866214603186,-0.004852015525102615
1685734989921779200,10.727779296875,0.015882495790719986,-0.003909537568688393,0.00898844562470913
1685734989941779200,10.747779296875,0.012095131911337376,-0.021415190771222115,0.010245082899928093
1685734989961779200,10.767779296875,0.020699605345726013,-0.017034413293004036,0.00874409917742014
1685734989981779200,10.787779296875,0.01226966455578804,-0.0050090947188436985,0.004956734832376242
1685734990001779200,10.807779296875,-0.022532200440764427,0.022741639986634254,0.0005934119690209627
1685734990021779200,10.827779296875,-0.032271139323711395,0.022619467228651047,-0.014346606098115444
1685734990041779200,10.847779296875,-0.013648474588990211,-0.004398229531943798,-0.011484266258776188
1685734990061779200,10.867779296875,0.008726646192371845,-0.012985249981284142,0.004084070213139057
1685734990081779200,10.887779296875,0.011833332479000092,-0.0026179938577115536,0.009861109778285027
1685734990101779200,10.907779296875,0.010489428415894508,-0.016528267413377762,0.0013264502631500363
1685734990121779200,10.927779296875,0.011082841083407402,-0.011623892933130264,-0.0057246801443398
1685734990141779200,10.947779296875,-0.003944444004446268,-0.002234021434560418,-0.012636183761060238
1685734990161779200,10.967779296875,-0.010821041651070118,-0.00047123889089562,-0.018832102417945862
1685734990181779200,10.987779296875,-0.008290314115583897,-0.008517206646502018,-0.00753982225432992
1685734990201779200,11.007779296875,-0.0024085543118417263,0.007853982038795948,0.009407324716448784
1685734990221779200,11.027779296875,-0.0006457717972807586,-0.0031241392716765404,0.00930260494351387
1685734990241779200,11.047779296875,0.013892821036279202,-0.008377579972147942,-0.004642575979232788
1685734990261779200,11.067779296875,0.02122320421040058,-0.008831365965306759,-0.007819075137376785
1685734990281779200,11.087779296875,0.009023352526128292,-0.006544984877109528,0.014154620468616486
1685734990301779200,11.107779296875,-0.007347836159169674,-0.0018151424592360854,-0.0018151424592360854
1685734990321779200,11.127779296875,-0.0039618974551558495,0.006684611085802317,-0.011763518676161766
1685734990341779200,11.147779296875,-0.014538592658936977,0.00753982225432992,-0.002722713630646467
1685734990361779200,11.167779296875,-0.016929693520069122,0.026389379054307938,-0.005078908056020737
1685734990381779200,11.187779296875,-0.002827433403581381,-0.004450589418411255,-0.01705186627805233
1685734990401779200,11.207779296875,0.025900686159729958,-0.00724311638623476,-0.009930923581123352
1685734990421779200,11.227779296875,0.023090705275535583,-0.00031415926059708,0.009826203808188438
1685734990441779200,11.247779296875,0.012932890094816685,-0.007225662935525179,0.03380702808499336
1685734990461779200,11.267779296875,0.009512044489383698,-0.0077841682359576225,0.005567600484937429
1685734990481779200,11.287779296875,-0.0016406094655394554,0.013124875724315643,-0.010262535884976387
1685734990501779200,11.307779296875,-0.016091935336589813,0.011588986031711102,-0.016947146505117416
1685734990521779200,11.327779296875,-0.00724311638623476,-0.0026179938577115536,0.001483529806137085
1685734990541779200,11.347779296875,0.0038746309000998735,-0.007522369269281626,0.004293509759008884
1685734990561779200,11.367779296875,0.018448129296302795,-0.008621926419436932,0.015707964077591896
1685734990581779200,11.387779296875,0.03366740047931671,-0.035098571330308914,0.0052534411661326885
1685734990601779200,11.407779296875,0.039793506264686584,-0.023265238851308823,0.006527531426399946
1685734990621779200,11.427779296875,0.008883725851774216,-0.003752457909286022,0.0080634206533432
1685734990641779200,11.447779296875,-0.021293016150593758,0.020786872133612633,0.002740166848525405
1685734990661779200,11.467779296875,-0.0286583062261343,0.02312561310827732,-0.015219271183013916
1685734990681779200,11.487779296875,-0.018989183008670807,0.022567106410861015,-0.011780972592532635
1685734990701779200,11.507779296875,-0.014538592658936977,0.0023387412074953318,-0.00027925267932005227
1685734990721779200,11.527779296875,0.003001966280862689,-0.0025307273026555777,0.0033859387040138245
1685734990741779200,11.547779296875,0.023090705275535583,-0.010995574295520782,-0.001972222002223134
1685734990761779200,11.567779296875,0.025481807067990303,0.0049916417337954044,-0.0011344640515744686
1685734990781779200,11.587779296875,-0.005497787147760391,0.010471975430846214,-0.0018500490114092827
1685734990801779200,11.607779296875,-0.02595304511487484,0.024294983595609665,-0.007888888008892536
1685734990821779200,11.627779296875,-0.02848377265036106,0.028763025999069214,-0.019058994948863983
1685734990841779200,11.647779296875,-0.020402899011969566,0.013281955383718014,-0.012496557086706161
1685734990861779200,11.667779296875,-0.0030194194987416267,-0.005567600484937429,-0.010000736452639103
1685734990881779200,11.687779296875,0.019739674404263496,-0.014102260582149029,-0.00125663704238832
1685734990901779200,11.707779296875,0.01661553420126438,-0.016022123396396637,0.02192133478820324
1685734990921779200,11.727779296875,-0.009023352526128292,-0.006492624990642071,0.028588492423295975
1685734990941779200,11.747779296875,-0.016353735700249672,-0.005742133129388094,0.006387905217707157
1685734990961779200,11.767779296875,-0.018186330795288086,-0.003525565145537257,-0.025324726477265358
1685734990981779200,11.787779296875,-0.03396410867571831,-0.006702064536511898,-0.040037851780653
1685734991001779200,11.807779296875,-0.028413960710167885,0.006719517521560192,-0.03989822790026665
1685734991021779200,11.827779296875,-0.0007330382941290736,-0.00518362782895565,-0.01616174913942814
1685734991041779200,11.847779296875,0.029426250606775284,0.0005585053586401045,0.022741639986634254
1685734991061779200,11.867779296875,0.027454029768705368,-0.00945968460291624,0.03968878835439682
1685734991081779200,11.887779296875,0.019250981509685516,-0.012095131911337376,0.037140607833862305
1685734991101779200,11.907779296875,0.004433136433362961,0.0044156829826533794,0.015114551410079002
1685734991121779200,11.927779296875,-0.026389379054307938,0.019687313586473465,0.0010646508308127522
1685734991141779200,11.947779296875,-0.0360061414539814,0.014276793226599693,-0.026075219735503197
1685734991161779200,11.967779296875,-0.02338741160929203,0.01326450239866972,-0.038379788398742676
1685734991181779200,11.987779296875,-0.002286381321027875,-0.007609635591506958,-0.019460421055555344
1685734991201779200,12.007779296875,0.0006806784076616168,-0.0031066860537976027,-0.0011693706037476659
1685734991221779200,12.027779296875,0.0008552113431505859,-0.01448623277246952,0.008953538723289967
1685734991241779200,12.047779296875,0.012758356519043446,-0.004310963209718466,0.017575465142726898
1685734991261779200,12.067779296875,0,-0.00923279207199812,0.008255407214164734
1685734991281779200,12.087779296875,-0.01633628085255623,0.012583823874592781,-0.014032446779310703
1685734991301779200,12.107779296875,-0.01595230959355831,0.0019198621157556772,-0.036564648151397705
1685734991321779200,12.127779296875,0.0013962633674964309,0.009407324716448784,-0.02754129469394684
1685734991341779200,12.147779296875,0.004939281847327948,0.006056292448192835,-0.005061454605311155
1685734991361779200,12.167779296875,0.006946410518139601,-0.011833332479000092,0.022287854924798012
1685734991381779200,12.187779296875,0.017924530431628227,-0.010419615544378757,0.028780478984117508
1685734991401779200,12.207779296875,0.01096066739410162,0.0015009831404313445,0.02033308520913124
1685734991421779200,12.227779296875,-0.003036872949451208,-0.004363323096185923,-0.004712388850748539
1685734991441779200,12.247779296875,-0.008098327554762363,0.005864306353032589,-0.0036128314677625895
1685734991461779200,12.267779296875,-0.03132865950465202,0.0223227608948946,-0.0047996556386351585
1685734991481779200,12.287779296875,-0.03127630054950714,0.01624901592731476,-0.010925761424005032
1685734991501779200,12.307779296875,0.013491394929587841,-0.01171115878969431,-0.020629791542887688
1685734991521779200,12.327779296875,0.04930555075407028,-0.012653636746108532,-0.011763518676161766
1685734991541779200,12.347779296875,0.02076941728591919,-0.015097098425030708,0.017575465142726898
1685734991561779200,12.367779296875,-0.005288347601890564,-0.0019198621157556772,0.0383099764585495
1685734991581779200,12.387779296875,-0.011763518676161766,0.010105456225574017,0.007400196045637131
1685734991601779200,12.407779296875,-0.018395770341157913,0.0103672556579113,-0.005916666239500046
1685734991621779200,12.427779296875,-0.014625859446823597,0.015358896926045418,-0.021816615015268326
1685734991641779200,12.447779296875,-0.009250245057046413,-0.0025656339712440968,-0.027052603662014008
1685734991661779200,12.467779296875,0.0012391837080940604,-0.008325220085680485,-0.027349309995770454
1685734991681779200,12.487779296875,0.019809486344456673,0.011397000402212143,-0.014521139673888683
1685734991701779200,12.507779296875,0.011484266258776188,-0.0005235987482592463,0.0021816615480929613
1685734991721779200,12.527779296875,0.008970992639660835,-0.006492624990642071,0.021205751225352287
1685734991741779200,12.547779296875,-0.0008203047327697277,-0.0006108652451075613,0.01794198527932167
1685734991761779200,12.567779296875,-0.013596114702522755,0.005759586580097675,0.008953538723289967
1685734991781779200,12.587779296875,-0.019722219556570053,0.0005585053586401045,-0.006422811653465033
1685734991801779200,12.607779296875,-0.0027052604127675295,0.0070685832761228085,-0.010751227848231792
1685734991821779200,12.627779296875,0.002321287989616394,-0.0010646508308127522,-0.006859143730252981
1685734991841779200,12.647779296875,0.00769690191373229,-0.010838494636118412,0.0006108652451075613
1685734991861779200,12.667779296875,0.015603243373334408,-0.01061160210520029,-0.001029744278639555
1685734991881779200,12.687779296875,0.01877974346280098,-0.004590216092765331,0.013683381490409374
1685734991901779200,12.707779296875,-0.010088003240525723,-0.006667157635092735,0.008011061698198318
1685734991921779200,12.727779296875,-0.011344640515744686,0.0030717793852090836,-0.0031590459402650595
1685734991941779200,12.747779296875,-0.008726646192371845,0.0019896754529327154,-0.011082841083407402
1685734991961779200,12.767779296875,-0.011763518676161766,0.0023561944253742695,-0.006056292448192835
1685734991981779200,12.787779296875,-0.006702064536511898,0.003944444004446268,-0.01211258489638567
1685734992001779200,12.807779296875,0.007155850064009428,-0.010838494636118412,-0.00251327408477664
1685734992021779200,12.827779296875,0.01357866171747446,-0.02209586836397648,0.01335176918655634
1685734992041779200,12.847779296875,0.005497787147760391,-0.002600540639832616,0.023684117943048477
1685734992061821400,12.867821533203125,-0.012636183761060238,0.00472984230145812,0.002373647876083851
1685734992081779200,12.887779296875,-0.018186330795288086,0.013124875724315643,-0.016353735700249672
1685734992101779200,12.907779296875,-0.01918116770684719,0.011885692365467548,-0.031869713217020035
1685734992121779200,12.927779296875,-0.00548033369705081,0.017016960307955742,-0.03583160787820816
1685734992141779200,12.947779296875,0.000017453292457503267,-0.006213372107595205,-0.011798425577580929
1685734992161779200,12.967779296875,0.01342158205807209,-0.005288347601890564,0.01567305624485016
1685734992181779200,12.987779296875,0.004398229531943798,-0.0034732052590698004,0.017907077446579933
1685734992201779200,13.007779296875,0.008726646192371845,-0.010594148188829422,0.022654373198747635
1685734992221779200,13.027779296875,0.005777040030807257,-0.0008028514566831291,0.004747295752167702
1685734992241779200,13.047779296875,-0.013055062852799892,0.017296213656663895,0.004136430099606514
1685734992261779200,13.067779296875,-0.026633724570274353,-0.00045378561480902135,-0.00094247778179124
1685734992281779200,13.087779296875,-0.0031939526088535786,0.008726646192371845,-0.017837265506386757
1685734992301779200,13.107779296875,0.010995574295520782,0.00043633230961859226,-0.02298598550260067
1685734992321779200,13.127779296875,0.013648474588990211,0.004974188283085823,0.001029744278639555
1685734992341779200,13.147779296875,0.016144296154379845,-0.008866272866725922,0.01202531810849905
1685734992361779200,13.167779296875,0.020298179239034653,-0.011798425577580929,0.01679006777703762
1685734992381779200,13.187779296875,0.007173303049057722,-0.018500490114092827,0.010786134749650955
1685734992401779200,13.207779296875,0.008604473434388638,-0.012444197200238705,0.0016755161341279745
1685734992421779200,13.227779296875,0.003455751808360219,-0.0067544239573180676,-0.019233528524637222
1685734992441779200,13.247779296875,0.008587019518017769,0.003455751808360219,-0.008779006078839302
1685734992461779200,13.267779296875,0.011013027280569077,0.0038397242315113544,-0.010786134749650955
1685734992481779200,13.287779296875,0.014346606098115444,-0.0038397242315113544,-0.006143558770418167
1685734992501779200,13.307779296875,0.021450096741318703,-0.008866272866725922,0.0023387412074953318
1685734992521779200,13.327779296875,0.01740093342959881,-0.011536626145243645,0.007103490177541971
1685734992541779200,13.347779296875,0.005166174378246069,-0.00502654816955328,-0.006318091880530119
1685734992561779200,13.367779296875,0.0016231562476605177,0.001972222002223134,-0.024469515308737755
1685734992581779200,13.387779296875,-0.0030194194987416267,0.005270894151180983,-0.024905849248170853
1685734992601779200,13.407779296875,-0.011885692365467548,0.016353735700249672,-0.01005309633910656
1685734992621779200,13.427779296875,-0.007155850064009428,-0.0020769417751580477,0.0018325956771150231
1685734992641779200,13.447779296875,0.020804325118660927,-0.0020769417751580477,0.022689281031489372
1685734992661779200,13.467779296875,0.0216071754693985,-0.003996803890913725,0.023265238851308823
1685734992681779200,13.487779296875,0.01912880875170231,0.0016755161341279745,0.00954695139080286
1685734992701779200,13.507779296875,0.00010471975838299841,0.013718287460505962,-0.01457349956035614
1685734992721779200,13.527779296875,-0.0216071754693985,0.02830924093723297,-0.01993165910243988
1685734992741779200,13.547779296875,-0.041521381586790085,0.028012534603476524,-0.019565140828490257
1685734992761779200,13.567779296875,-0.026302112266421318,-0.0029321531765162945,-0.0013264502631500363
1685734992781779200,13.587779296875,-0.004694935865700245,-0.01727875880897045,0.01392772700637579
1685734992801779200,13.607779296875,0.01432915311306715,-0.012461651116609573,0.04075343906879425
1685734992821779200,13.627779296875,0.013857914134860039,-0.022270401939749718,0.03827507048845291
1685734992841779200,13.647779296875,0.012985249981284142,-0.015184364281594753,0.025481807067990303
1685734992861779200,13.667779296875,0.0016406094655394554,-0.01129228062927723,0.010541788302361965
1685734992881779200,13.687779296875,-0.020053833723068237,0.01492256484925747,-0.02122320421040058
1685734992901779200,13.707779296875,-0.012740903533995152,0.015865042805671692,-0.04012512043118477
1685734992921779200,13.727779296875,0.004450589418411255,0.00427605677396059,-0.01633628085255623
1685734992941779200,13.747779296875,-0.002234021434560418,0.003455751808360219,0.0017627825727686286
1685734992961779200,13.767779296875,0.012095131911337376,-0.007016223389655352,0.01532399095594883
1685734992981779200,13.787779296875,0.01935570128262043,-0.0213104709982872,0.0005934119690209627
1685734993001779200,13.807779296875,0.009913469664752483,0.00040142572834156454,-0.0033859387040138245
1685734993021779200,13.827779296875,-0.006946410518139601,0.003717551240697503,-0.0045378562062978745
1685734993041779200,13.847779296875,-0.012828170321881771,0.015358896926045418,-0.009320057928562164
1685734993061779200,13.867779296875,-0.017662731930613518,0.011257373727858067,-0.011013027280569077
1685734993081779200,13.887779296875,-0.01722639985382557,0.007051130291074514,-0.0015707963611930609
1685734993101779200,13.907779296875,0.0024085543118417263,-0.004468042869120836,-0.015132004395127296
1685734993121779200,13.927779296875,0.02658136375248432,-0.012810716405510902,-0.009808750823140144
1685734993141779200,13.947779296875,0.012147491797804832,-0.02560397982597351,0.028902651742100716
1685734993161779200,13.967779296875,0.0016406094655394554,-0.003089232835918665,0.027314402163028717
1685734993181779200,13.987779296875,-0.0021293016616255045,-0.005445427261292934,-0.0073129297234117985
1685734993201779200,14.007779296875,-0.010088003240525723,0.010506882332265377,-0.021118484437465668
1685734993221779200,14.027779296875,-0.03611086308956146,0.018500490114092827,-0.013805554248392582
1685734993241779200,14.047779296875,-0.0397411473095417,0.015969762578606606,-0.0031241392716765404
1685734993261779200,14.067779296875,-0.0024085543118417263,-0.0009948377264663577,0.0011868239380419254
1685734993281779200,14.087779296875,0.03595378249883652,-0.013491394929587841,0.00783652812242508
1685734993301779200,14.107779296875,0.03796090930700302,-0.027384215965867043,0.012444197200238705
1685734993321779200,14.127779296875,0.02316051907837391,-0.008796459063887596,0.01342158205807209
1685734993341779200,14.147779296875,0.00769690191373229,-0.001745329238474369,0.011990412138402462
1685734993361779200,14.167779296875,-0.019809486344456673,0.006527531426399946,0.010855947621166706
1685734993381779200,14.187779296875,-0.02940879762172699,0.014503685757517815,-0.003996803890913725
1685734993401779200,14.207779296875,-0.006352998316287994,0.003804817795753479,-0.01021017599850893
1685734993421779200,14.227779296875,-0.0006108652451075613,-0.007365289609879255,-0.0009599310578778386
1685734993441779200,14.247779296875,0.011554080061614513,-0.0022165682166814804,0.0008552113431505859
1685734993461779200,14.267779296875,0.021903881803154945,-0.017383478581905365,-0.007120943162590265
1685734993481779200,14.287779296875,0.022043507546186447,-0.011501720175147057,0.005532693583518267
1685734993501779200,14.307779296875,0.006405358202755451,-0.003455751808360219,0.0031241392716765404
1685734993521779200,14.327779296875,-0.015411256812512875,0.01021017599850893,-0.014294246211647987
1685734993541779200,14.347779296875,-0.019390607252717018,0.004642575979232788,-0.024434609338641167
1685734993561779200,14.367779296875,-0.001483529806137085,0.011641345918178558,-0.013962633907794952
1685734993581779200,14.387779296875,0.004694935865700245,-0.004450589418411255,-0.0017278759041801095
1685734993601779200,14.407779296875,0.017208946868777275,-0.012287117540836334,-0.0010821041651070118
1685734993621779200,14.427779296875,0.016441000625491142,-0.015341443940997124,0.00970403105020523
1685734993641779200,14.447779296875,0.010018189437687397,0.004084070213139057,0.01802925020456314
1685734993661779200,14.467779296875,-0.008115780539810658,-0.008168140426278114,-0.0080634206533432
1685734993681779200,14.487779296875,-0.018099064007401466,-0.00015707963029854,-0.0091455252841115
1685734993701779200,14.507779296875,-0.015498523600399494,0.00890117883682251,-0.001029744278639555
1685734993721779200,14.527779296875,-0.014433872886002064,-0.003176499158143997,-0.007365289609879255
1685734993741779200,14.547779296875,0.006894050631672144,-0.027227135375142097,-0.011013027280569077
1685734993761779200,14.567779296875,0.029112091287970543,-0.019250981509685516,0.004590216092765331
1685734993781779200,14.587779296875,0.0060388389974832535,-0.022968532517552376,0.02197369560599327
1685734993801779200,14.607779296875,-0.006056292448192835,-0.011135200969874859,0.020123645663261414
1685734993821779200,14.627779296875,-0.00663225119933486,-0.0021816615480929613,-0.0003316125657875091
1685734993841779200,14.647779296875,-0.011780972592532635,0.005148721393197775,-0.005358160939067602
1685734993861779200,14.667779296875,-0.020088739693164825,0.006405358202755451,-0.015777776017785072
1685734993881779200,14.687779296875,-0.02148500271141529,-0.005689773242920637,-0.01731366664171219
1685734993901779200,14.707779296875,-0.006824237294495106,-0.039933133870363235,0.0018500490114092827
1685734993921779200,14.727779296875,0.017121680080890656,-0.024434609338641167,0.022183135151863098
1685734993941779200,14.747779296875,0.01797689124941826,-0.028099801391363144,0.02370157092809677
1685734993961779200,14.767779296875,0.01342158205807209,-0.01603957638144493,0.025761060416698456
1685734993981779200,14.787779296875,0.004188789986073971,-0.0063355453312397,0.01661553420126438
1685734994001779200,14.807779296875,-0.019896753132343292,0.017331119626760483,-0.0013613568153232336
1685734994021779200,14.827779296875,-0.02822197414934635,0.006108652334660292,-0.030682887881994247
1685734994041779200,14.847779296875,-0.0038746309000998735,-0.00019198621157556772,-0.032882001250982285
1685734994061779200,14.867779296875,0.00047123889089562,-0.0021816615480929613,-0.012461651116609573
1685734994081779200,14.887779296875,0.00041887903353199363,-0.010821041651070118,0.02617993950843811
1685734994101779200,14.907779296875,0.01855284906923771,-0.024434609338641167,0.04113740846514702
1685734994121838600,14.927838623046876,0.017470745369791985,-0.01202531810849905,0.021642083302140236
1685734994141779200,14.947779296875,0.004398229531943798,-0.011885692365467548,0.0016406094655394554
1685734994161779200,14.967779296875,-0.0038222710136324167,0.00823795422911644,-0.01961750164628029
1685734994181779200,14.987779296875,-0.02241002768278122,0.005340707488358021,-0.020751964300870895
1685734994201779200,15.007779296875,-0.022619467228651047,0.016545720398426056,-0.011431906372308731
1685734994221779200,15.027779296875,0.008517206646502018,-0.006649704650044441,-0.00855211354792118
1685734994241779200,15.047779296875,0.0357094369828701,-0.027087509632110596,-0.004869468510150909
1685734994261779200,15.067779296875,0.022444933652877808,-0.01926843449473381,0.016807520762085915
1685734994281779200,15.087779296875,0.004153883550316095,0.008325220085680485,0.027628561481833458
1685734994301779200,15.107779296875,-0.013857914134860039,0.01682497374713421,-0.004694935865700245
1685734994321779200,15.127779296875,-0.022794000804424286,0.011990412138402462,-0.014503685757517815
1685734994341779200,15.147779296875,-0.019809486344456673,0.00038397242315113544,-0.010471975430846214
1685734994361779200,15.167779296875,0.0018151424592360854,-0.009128072299063206,-0.006841690745204687
1685734994381779200,15.187779296875,0.019722219556570053,-0.01603957638144493,-0.01532399095594883
1685734994401779200,15.207779296875,0.03132865950465202,-0.015184364281594753,0.005550147034227848
1685734994421779200,15.227779296875,0.00617846567183733,-0.010279988870024681,0.004747295752167702
1685734994441779200,15.247779296875,-0.006195918656885624,0.013561207801103592,0.0012740903766825795
1685734994461779200,15.267779296875,-0.017174039036035538,0.014748032204806805,-0.0005759586347267032
1685734994481779200,15.287779296875,-0.022514747455716133,0.014311700128018856,-0.002548180753365159
1685734994501779200,15.307779296875,-0.011257373727858067,-0.002775073517113924,-0.017470745369791985
1685734994521779200,15.327779296875,0.007173303049057722,-0.005218534264713526,-0.010349802672863007
1685734994541779200,15.347779296875,-0.0015882495790719986,-0.004747295752167702,-0.005811946466565132
1685734994561779200,15.367779296875,0.006300638429820538,-0.012950343079864979,0.0013613568153232336
1685734994581779200,15.387779296875,0.018849555402994156,-0.017784904688596725,0.0012217304902151227
1685734994601779200,15.407779296875,0.015777776017785072,-0.00472984230145812,0.013980086892843246
1685734994621779200,15.427779296875,-0.010332348756492138,0.01211258489638567,0.010332348756492138
1685734994641779200,15.447779296875,-0.020839231088757515,0.021642083302140236,-0.01710422709584236
1685734994661779200,15.467779296875,-0.01776745170354843,0.01837831735610962,-0.03932226821780205
1685734994681779200,15.487779296875,-0.004642575979232788,0.012374384328722954,-0.02085668407380581
1685734994701779200,15.507779296875,0.020612338557839394,-0.024661501869559288,-0.00019198621157556772
1685734994721779200,15.527779296875,0.051050879061222076,-0.041259583085775375,0.02457423508167267
1685734994741779200,15.547779296875,0.03159045800566673,-0.029164452105760574,0.03159045800566673
1685734994761779200,15.567779296875,0.00029670598451048136,-0.0031241392716765404,0.021799162030220032
1685734994781779200,15.587779296875,-0.034173548221588135,0.011623892933130264,-0.02024581842124462
1685734994801779200,15.607779296875,-0.03954916074872017,0.04269075393676758,-0.04021238535642624
1685734994821779200,15.627779296875,-0.04253367334604263,0.027122415602207184,-0.03296926990151405
1685734994841779200,15.647779296875,-0.016720253974199295,0.006510077975690365,-0.00188495556358248
1685734994861779200,15.667779296875,0.01492256484925747,-0.03162536770105362,0.017558012157678604
1685734994881779200,15.687779296875,0.039392080157995224,-0.03394665569067001,0.03441789373755455
1685734994901779200,15.707779296875,0.038990654051303864,-0.01877974346280098,0.03721041977405548
1685734994921779200,15.727779296875,0.010245082899928093,-0.001483529806137085,0.025970499962568283
1685734994941779200,15.747779296875,-0.0015707963611930609,-0.0011344640515744686,0.012653636746108532
1685734994961779200,15.767779296875,-0.012758356519043446,0.01302015595138073,0.0007504915702156723
1685734994981779200,15.787779296875,-0.028955012559890747,0.009564404375851154,-0.024085544049739838
1685734995001779200,15.807779296875,-0.022968532517552376,0.01661553420126438,-0.03162536770105362
1685734995021779200,15.827779296875,0.0024958208668977022,-0.0012391837080940604,-0.024120450019836426
1685734995041779200,15.847779296875,0.019966566935181618,0.00678933085873723,-0.021676989272236824
1685734995061779200,15.867779296875,-0.004921828396618366,0.005270894151180983,0.017505653202533722
1685734995081779200,15.887779296875,0.007487462367862463,-0.0247662216424942,0.05721189081668854
1685734995101779200,15.907779296875,0.017435839399695396,0.004014257341623306,-0.013055062852799892
1685734995121779200,15.927779296875,0.0015882495790719986,0.003577925032004714,-0.026057764887809753
1685734995141779200,15.947779296875,-0.003804817795753479,-0.004939281847327948,-0.017907077446579933
1685734995161779200,15.967779296875,-0.00027925267932005227,0.0033859387040138245,-0.012775810435414314
1685734995181779200,15.987779296875,-0.024644048884510994,0.0077667152509093285,-0.006021386012434959
1685734995201779200,16.007779296875,-0.00022689280740451068,-0.0005410520825535059,0.008220500312745571
1685734995221779200,16.027779296875,0.032393310219049454,-0.008447393774986267,0.0027576202992349863
1685734995241779200,16.047779296875,0.029705503955483437,-0.004084070213139057,0.015289084054529667
1685734995261779200,16.067779296875,0.006387905217707157,-0.009651671163737774,0.013281955383718014
1685734995281779200,16.087779296875,0.0039618974551558495,0.011222466826438904,0.005148721393197775
1685734995301779200,16.107779296875,-0.020577432587742805,0.03274237737059593,-0.011972958222031593
1685734995321779200,16.127779296875,-0.016231561079621315,0.019774580374360085,-0.013735741376876831
1685734995341779200,16.147779296875,0.002809980185702443,-0.013491394929587841,-0.010332348756492138
1685734995361779200,16.167779296875,0.021380282938480377,0.001658062799833715,-0.017470745369791985
1685734995381779200,16.187779296875,0.014119713567197323,0.003630284918472171,-0.009040805511176586
1685734995401779200,16.207779296875,0.012932890094816685,0.03413863852620125,-0.01357866171747446
1685734995421779200,16.227779296875,-0.0011693706037476659,0.020350538194179535,-0.004049163777381182
1685734995441779200,16.247779296875,-0.01616174913942814,0.02816961333155632,0.01417207345366478
1685734995461779200,16.267779296875,0.0017278759041801095,0.012164944782853127,0.026808258146047592
1685734995481779200,16.287779296875,-0.005899212788790464,0.0046774824149906635,0.0028972465079277754
1685734995501779200,16.307779296875,-0.01333431527018547,0.01357866171747446,-0.023055799305438995
1685734995521779200,16.327779296875,-0.01624901592731476,0.019565140828490257,-0.04363323003053665
1685734995541779200,16.347779296875,-0.025359634310007095,0.018657568842172623,-0.031695179641246796
1685734995561779200,16.367779296875,-0.002199114765971899,0.007661995477974415,-0.019477874040603638
1685734995581779200,16.387779296875,0.01441641990095377,-0.0055850534699857235,0.017837265506386757
1685734995601779200,16.407779296875,0.014346606098115444,-0.00017453292093705386,0.03520328924059868
1685734995621779200,16.427779296875,0.003176499158143997,0.019547687843441963,0.020053833723068237
1685734995641779200,16.447779296875,-0.013124875724315643,0.02183406800031662,0.003263765713199973
1685734995661779200,16.467779296875,-0.01705186627805233,0.02143264375627041,-0.01136209350079298
1685734995681779200,16.487779296875,-0.0014660765882581472,0.0010646508308127522,-0.0029321531765162945
1685734995701779200,16.507779296875,0.024417156353592873,-0.013631021603941917,-0.006440265104174614
1685734995721779200,16.527779296875,0.0279427208006382,-0.009983283467590809,-0.014660765416920185
1685734995741779200,16.547779296875,-0.0033684854861348867,0.012566370889544487,0.004241149872541428
1685734995761779200,16.567779296875,-0.028187068179249763,-0.0015707963611930609,0.009477137587964535
1685734995781785600,16.58778564453125,-0.0037350046914070845,-0.007679448463022709,-0.017331119626760483
1685734995801779200,16.607779296875,0.025185100734233856,-0.013473941944539547,-0.026232298463582993
1685734995821779200,16.627779296875,0.022165682166814804,-0.01673770695924759,-0.020315632224082947
1685734995841779200,16.647779296875,0.016999507322907448,-0.001518436474725604,-0.004328416660428047
1685734995861779200,16.667779296875,0.0014486232539638877,0.0080634206533432,0.006684611085802317
1685734995881779200,16.687779296875,-0.0023561944253742695,-0.00008726646046852693,0.016580628231167793
1685734995901779200,16.707779296875,0.01235693134367466,0.0013264502631500363,0.002740166848525405
1685734995921779200,16.727779296875,0.006649704650044441,0.0037873645778745413,-0.011466813273727894
1685734995941779200,16.747779296875,-0.014538592658936977,0.013212142512202263,-0.020786872133612633
1685734995961779200,16.767779296875,-0.03883357718586922,0.005113814491778612,-0.02834414690732956
1685734995981779200,16.787779296875,-0.03654719516634941,0.013386675156652927,-0.05394812673330307
1685734996001779200,16.807779296875,-0.0216071754693985,0.026982789859175682,-0.04712389037013054
1685734996021779200,16.827779296875,-0.0008203047327697277,0.012583823874592781,-0.01630137488245964
1685734996041779200,16.847779296875,0.030805060639977455,-0.025987952947616577,0.02759365551173687
1685734996061779200,16.867779296875,0.053127821534872055,-0.03876376152038574,0.06728244572877884
1685734996081779200,16.887779296875,0.04513421282172203,-0.0190066359937191,0.063372902572155
1685734996101779200,16.907779296875,0.014451325871050358,0.007278022821992636,0.0024085543118417263
1685734996121779200,16.927779296875,-0.016982054337859154,0.015865042805671692,-0.05077162757515907
1685734996141779200,16.947779296875,-0.051138147711753845,0.03982841223478317,-0.07700392603874207
1685734996161779200,16.967779296875,-0.06236061453819275,0.03335324302315712,-0.0708429142832756
1685734996181779200,16.987779296875,-0.029304077848792076,0.01029744278639555,-0.028204521164298058
1685734996201779200,17.007779296875,0.045326199382543564,-0.03883357718586922,0.034662239253520966
1685734996221779200,17.027779296875,0.09826203435659409,-0.0622209869325161,0.09028588235378265
1685734996241779200,17.047779296875,0.06733480095863342,-0.030839968472719193,0.08077383786439896
1685734996261779200,17.067779296875,0.0037000980228185654,-0.01302015595138073,0.03166027367115021
1685734996281779200,17.087779296875,-0.04136430472135544,0.05218534544110298,-0.06157521530985832
1685734996301779200,17.107779296875,-0.08332201838493347,0.08511970937252045,-0.13761921226978302
1685734996321779200,17.127779296875,-0.07525859773159027,0.03778637945652008,-0.10595893859863281
1685734996341779200,17.147779296875,-0.00427605677396059,0.004904375411570072,-0.013700834475457668
1685734996361779200,17.167779296875,0.08196066319942474,-0.06115633621811867,0.09728465229272842
1685734996381779200,17.187779296875,0.12205087393522263,-0.06778858602046967,0.13500121235847473
1685734996401779200,17.207779296875,0.08435176312923431,-0.03338814899325371,0.06152285635471344
1685734996421779200,17.227779296875,0.003909537568688393,0.026563910767436028,-0.03661700710654259
1685734996441779200,17.247779296875,-0.07883652299642563,0.08147197216749191,-0.12222540378570557
1685734996461779200,17.267779296875,-0.1201135590672493,0.06627015024423599,-0.14494960010051727
1685734996481779200,17.287779296875,-0.03150319308042526,0.01846558414399624,-0.07106980681419373
1685734996501779200,17.307779296875,0.07073819637298584,-0.028815384954214096,0.06396631896495819
1685734996521779200,17.327779296875,0.14709635078907013,-0.05230751633644104,0.16741198301315308
1685734996541779200,17.347779296875,0.16824974119663239,-0.003228859044611454,0.13946926593780518
1685734996561779200,17.367779296875,0.1396612524986267,0.10128145664930344,0.005061454605311155
1685734996581779200,17.387779296875,-0.02134537696838379,0.09609782695770264,-0.05585053563117981
1685734996601779200,17.407779296875,-0.07817329466342926,0.1670803725719452,-0.0803724154829979
1685734996621779200,17.427779296875,-0.08567821234464645,0.12512265145778656,-0.011135200969874859
1685734996641779200,17.447779296875,-0.010751227848231792,0.06906268000602722,0.08197811245918274
1685734996661779200,17.467779296875,0.08721410483121872,0.08436921238899231,0.1990198940038681
1685734996681779200,17.487779296875,0.02909463830292225,-0.029443703591823578,0.2538232207298279
1685734996701779200,17.507779296875,-0.09456194192171097,-0.13238322734832764,0.25736624002456665
1685734996721779200,17.527779296875,-0.20086994767189026,-0.1097288504242897,0.20828759670257568
1685734996741779200,17.547779296875,-0.21279054880142212,-0.005689773242920637,0.014852751977741718
1685734996761779200,17.567779296875,-0.1616174876689911,0.1627170443534851,-0.19563394784927368
1685734996781779200,17.587779296875,-0.03906046971678734,0.07017968595027924,-0.19563394784927368
1685734996801779200,17.607779296875,0.06590363383293152,-0.05695009231567383,-0.03534291684627533
1685734996821779200,17.627779296875,0.18121753633022308,-0.10314895957708359,0.13903293013572693
1685734996841779200,17.647779296875,0.2312561273574829,-0.0852593332529068,0.15367624163627625
1685734996861779200,17.667779296875,0.10965903848409653,-0.012723450548946857,0.06675884127616882
1685734996881779200,17.687779296875,-0.11321950703859329,0.045326199382543564,-0.01864011585712433
1685734996901779200,17.707779296875,-0.1952499896287918,0.11705923080444336,-0.16226325929164886
1685734996921779200,17.727779296875,-0.18469074368476868,0.14147639274597168,-0.28614673018455505
1685734996941779200,17.747779296875,-0.05160938575863838,0.1152091845870018,-0.21994638442993164
1685734996961779200,17.767779296875,0.14528121054172516,-0.030455995351076126,0.0018500490114092827
1685734996981779200,17.787779296875,0.2537883222103119,-0.13468705117702484,0.250576913356781
1685734997001779200,17.807779296875,0.17753489315509796,-0.06239552050828934,0.2442413717508316
1685734997021779200,17.827779296875,-0.03202679008245468,0.04836307466030121,0.04815363511443138
1685734997041779200,17.847779296875,-0.23164010047912598,0.13002702593803406,-0.09388125687837601
1685734997061821400,17.867821533203124,-0.317423015832901,0.2307150661945343,-0.14159856736660004
1685734997081779200,17.887779296875,-0.1952848881483078,0.19626227021217346,-0.13866640627384186
1685734997101779200,17.907779296875,0.05293583497405052,-0.018133969977498055,-0.12608258426189423
1685734997121779200,17.927779296875,0.2494075447320938,-0.055972710251808167,-0.06613052636384964
1685734997141779200,17.947779296875,0.2724109888076782,-0.06356488913297653,0.10234610736370087
1685734997161779200,17.967779296875,0.14451326429843903,0.01457349956035614,0.192422553896904
1685734997181779200,17.987779296875,-0.08040732145309448,0.12828169763088226,0.21704915165901184
1685734997201779200,18.007779296875,-0.2096838504076004,0.21853268146514893,0.17732545733451843
1685734997221779200,18.027779296875,-0.1812000870704651,0.11817624419927597,0.02267182618379593
1685734997241779200,18.047779296875,-0.16805775463581085,0.06161012127995491,-0.10290461033582687
1685734997261779200,18.067779296875,-0.11103784292936325,-0.06909758597612381,-0.15732397139072418
1685734997281779200,18.087779296875,0.012705996632575989,-0.03508111834526062,-0.04171336814761162
1685734997301779200,18.107779296875,0.14219197630882263,-0.1264491081237793,0.10054841637611389
1685734997321779200,18.127779296875,0.2911732792854309,-0.07620107382535934,0.23858651518821716
1685734997341779200,18.147779296875,0.2946639358997345,-0.09930923581123352,0.28707176446914673
1685734997361779200,18.167779296875,0.21291270852088928,-0.050597093999385834,0.29220300912857056
1685734997381779200,18.187779296875,0.14814354479312897,-0.017592918127775192,0.25015804171562195
1685734997401779200,18.207779296875,0.10421361029148102,0.056269414722919464,0.13322098553180695
1685734997421779200,18.227779296875,0.042586032301187515,0.0431968979537487,0.02733185514807701
1685734997441779200,18.247779296875,0.017016960307955742,-0.031555552035570145,-0.033824481070041656
1685734997461779200,18.267779296875,0.06183701381087303,-0.06368706375360489,-0.061191242188215256
1685734997481779200,18.287779296875,0.13358749449253082,-0.05408775433897972,-0.13082988560199738
1685734997501779200,18.307779296875,0.10587166994810104,-0.015550883486866951,-0.14454816281795502
1685734997521779200,18.327779296875,0.02045525796711445,0.057473693042993546,-0.13386675715446472
1685734997541779200,18.347779296875,-0.06551966071128845,0.040055304765701294,-0.05850343778729439
1685734997561779200,18.367779296875,-0.049235738813877106,0.03928736224770546,0.019512781873345375
1685734997581779200,18.387779296875,-0.02370157092809677,-0.04358087107539177,0.03623303398489952
1685734997601779200,18.407779296875,0.012775810435414314,-0.05026548355817795,0.0015009831404313445
1685734997621782500,18.427782470703125,-0.030002210289239883,-0.06099925562739372,-0.033056534826755524
1685734997641779200,18.447779296875,-0.03352777659893036,-0.022252947092056274,-0.055257122963666916
1685734997661779200,18.467779296875,0.012740903533995152,-0.015184364281594753,-0.07124433666467667
1685734997681779200,18.487779296875,0.0015358896926045418,-0.028361599892377853,-0.09697049111127853
1685734997701779200,18.507779296875,-0.03118903376162052,-0.0656767413020134,-0.07803367078304291
1685734997721779200,18.527779296875,-0.06976080685853958,-0.0970577597618103,-0.04543092101812363
1685734997741779200,18.547779296875,-0.009808750823140144,-0.030665434896945953,-0.08002334833145142
1685734997761779200,18.567779296875,0.011239920742809772,0.02785545401275158,-0.13727015256881714
1685734997781779200,18.587779296875,0.000017453292457503267,0.030682887881994247,-0.019879300147294998
1685734997801779200,18.607779296875,-0.028763025999069214,-0.004712388850748539,0.0895702987909317
1685734997821779200,18.627779296875,-0.002024581888690591,0.03344050794839859,0.08838347345590591
1685734997841779200,18.647779296875,0.014905111864209175,0.023055799305438995,0.040055304765701294
1685734997861779200,18.667779296875,-0.024958208203315735,0.024905849248170853,-0.02874557301402092
1685734997881779200,18.687779296875,-0.030194196850061417,0.08937831223011017,-0.07869689911603928
1685734997901779200,18.707779296875,-0.037088245153427124,0.06080726906657219,-0.08429940044879913
1685734997921779200,18.727779296875,-0.02719222940504551,0.042987458407878876,-0.044488441199064255
1685734997941779200,18.747779296875,-0.043825216591358185,-0.0126710906624794,-0.018291050568223
1685734997961779200,18.767779296875,0.006126105785369873,0.003944444004446268,-0.04300491139292717
1685734997981779200,18.787779296875,0.014590952545404434,-0.0031590459402650595,-0.05249950289726257
1685734998001779200,18.807779296875,0.008447393774986267,0.05916666239500046,-0.07988371700048447
1685734998021779200,18.827779296875,0.009494591504335403,0.0918915867805481,-0.13639748096466064
1685734998041779200,18.847779296875,-0.04417428374290466,0.10529571026563644,-0.12828169763088226
1685734998061779200,18.867779296875,-0.06979571282863617,0.022113321349024773,-0.034784410148859024
1685734998081779200,18.887779296875,-0.008203047327697277,0.032445669174194336,0.002722713630646467
1685734998101779200,18.907779296875,0.03958406671881676,0.035814154893159866,-0.01226966455578804
1685734998121779200,18.927779296875,0.06927211582660675,0.02197369560599327,-0.0031939526088535786
1685734998141779200,18.947779296875,0.07361798733472824,0.005619960371404886,0.0017802357906475663
1685734998161779200,18.967779296875,0.04920083284378052,-0.03166027367115021,-0.009477137587964535
1685734998181779200,18.987779296875,0.053843408823013306,-0.009110618382692337,0.012601276859641075
1685734998201779200,19.007779296875,0.04380776360630989,-0.04677482321858406,0.05792747810482979
1685734998221779200,19.027779296875,0.06541494280099869,-0.04642575979232788,-0.004625122528523207
1685734998241779200,19.047779296875,0.04054399952292442,0.02963569015264511,-0.039444439113140106
1685734998261779200,19.067779296875,-0.01333431527018547,0.0019373154500499368,0.036302849650382996
1685734998281779200,19.087779296875,-0.012583823874592781,-0.007120943162590265,0.04680972918868065
1685734998301779200,19.107779296875,-0.0073303827084600925,-0.014381512999534607,0.014870204962790012
1685734998321779200,19.127779296875,0.03703588619828224,-0.039531707763671875,-0.014294246211647987
1685734998341779200,19.147779296875,0.02267182618379593,-0.027035150676965714,-0.034697145223617554
1685734998361779200,19.167779296875,-0.00799360778182745,-0.012095131911337376,-0.025673793628811836
1685734998381779200,19.187779296875,0.01326450239866972,-0.007208209950476885,0.0011868239380419254
1685734998401779200,19.207779296875,0.01788962446153164,-0.003752457909286022,0.025394540280103683
1685734998421779200,19.227779296875,0.02776818908751011,-0.013491394929587841,-0.00031415926059708
1685734998441779200,19.247779296875,0.011658798903226852,0.03291691094636917,-0.05740387737751007
1685734998461779200,19.267779296875,0.010506882332265377,0.002722713630646467,-0.010105456225574017
1685734998481779200,19.287779296875,-0.0028623400721699,0.02453932911157608,-0.036128316074609756
1685734998501779200,19.307779296875,-0.020402899011969566,-0.00040142572834156454,0.018936822190880775
1685734998521779200,19.327779296875,0.010716321878135204,-0.036686819046735764,0.042271874845027924
1685734998541779200,19.347779296875,0.03611086308956146,0.011815878562629223,-0.04632103815674782
1685734998561779200,19.367779296875,-0.01242674421519041,0.005672320257872343,-0.03792600333690643
1685734998581779200,19.387779296875,-0.018709929659962654,-0.0032114058267325163,-0.006318091880530119
1685734998601779200,19.407779296875,0.006597344763576984,-0.019774580374360085,0.018587756901979446
1685734998621779200,19.427779296875,0.024329889565706253,0.011588986031711102,-0.03583160787820816
1685734998641779200,19.447779296875,0.011466813273727894,0.008831365965306759,0.017732545733451843
1685734998661779200,19.467779296875,0.022252947092056274,-0.030176742002367973,0.05867796763777733
1685734998681779200,19.487779296875,0.06801547855138779,-0.02010619267821312,0.03914773464202881
1685734998701779200,19.507779296875,0.017156586050987244,-0.03609341010451317,0.09320057928562164
1685734998721779200,19.527779296875,0.0021642083302140236,-0.010402162559330463,0.008953538723289967
1685734998741779200,19.547779296875,-0.0030717793852090836,0.02188642881810665,-0.080058254301548
1685734998761779200,19.567779296875,-0.012967796064913273,-0.01111774705350399,-0.01432915311306715
1685734998781779200,19.587779296875,-0.024521876126527786,0.012339477427303791,-0.03982841223478317
1685734998801779200,19.607779296875,-0.021380282938480377,0.019914206117391586,-0.07424630969762802
1685734998821779200,19.627779296875,0.020088739693164825,0.0036826448049396276,-0.02687807008624077
1685734998841779200,19.647779296875,0.016982054337859154,0.0328296422958374,0.009930923581123352
1685734998861779200,19.667779296875,-0.011135200969874859,0.030979594215750694,0.005288347601890564
1685734998881779200,19.687779296875,0.02122320421040058,-0.01710422709584236,0.037768926471471786
1685734998901779200,19.707779296875,0.03431317210197449,-0.011815878562629223,0.009791296906769276
1685734998921779200,19.727779296875,0.01616174913942814,-0.01855284906923771,-0.023020893335342407
1685734998941779200,19.747779296875,0.015969762578606606,0.04071853309869766,-0.0990648865699768
1685734998961779200,19.767779296875,-0.0049916417337954044,0.025446901097893715,-0.03565707802772522
1685734998981779200,19.787779296875,0.03420845419168472,-0.04757767543196678,0.05527457594871521
1685734999001779200,19.807779296875,0.03281218931078911,0.0016406094655394554,0.005550147034227848
1685734999021779200,19.827779296875,0.010506882332265377,-0.0029321531765162945,0.021554816514253616
1685734999041779200,19.847779296875,0.025150194764137268,-0.01021017599850893,0.02967059798538685
1685734999061779200,19.867779296875,-0.010419615544378757,-0.031119219958782196,0.02900737151503563
1685734999081779200,19.887779296875,-0.02888519875705242,-0.009651671163737774,-0.029967302456498146
1685734999101779200,19.907779296875,-0.01080358773469925,-0.007941247895359993,-0.028640853241086006
1685734999121779200,19.927779296875,0.03199188411235809,-0.05405284836888313,0.057997290045022964
1685734999141779200,19.947779296875,0.06155776232481003,-0.021676989272236824,0.026389379054307938
1685734999161779200,19.967779296875,0.0394618958234787,-0.02419026382267475,-0.006894050631672144
1685734999181779200,19.987779296875,0.01333431527018547,0.007487462367862463,-0.018168877810239792
1685734999201779200,20.007779296875,-0.02427753061056137,0.03183480724692345,-0.02045525796711445
1685734999221779200,20.027779296875,-0.049008846282958984,0.03984586521983147,0.022078415378928185
1685734999241779200,20.047779296875,0.005305801052600145,-0.00890117883682251,-0.049584802240133286
1685734999261779200,20.067779296875,0.04401720315217972,0.005846852902323008,0.021799162030220032
1685734999281779200,20.087779296875,0.045204028487205505,-0.035587262362241745,0.0610516183078289
1685734999301779200,20.107779296875,-0.002234021434560418,0.04092797264456749,-0.026337018236517906
1685734999321779200,20.127779296875,-0.0073129297234117985,-0.033772122114896774,-0.001117010717280209
1685734999341779200,20.147779296875,0.016493361443281174,0.01377064734697342,0.0007504915702156723
1685734999361779200,20.167779296875,-0.013247049413621426,0.01310742273926735,0.025499260053038597
1685734999381779200,20.187779296875,-0.018395770341157913,0.006318091880530119,-0.012147491797804832
1685734999401779200,20.207779296875,0.018832102417945862,-0.028623400256037712,-0.0012740903766825795
1685734999421779200,20.227779296875,-0.011082841083407402,0.038432151079177856,-0.03490658476948738
1685734999441779200,20.247779296875,-0.0339815616607666,0.015620696358382702,0.004817108623683453
1685734999461779200,20.267779296875,0.021799162030220032,-0.025080380961298943,0.059602994471788406
1685734999481779200,20.287779296875,0.026773350313305855,-0.006440265104174614,-0.030927233397960663
1685734999501779200,20.307779296875,-0.025411993265151978,0.008028514683246613,-0.005742133129388094
1685734999521779200,20.327779296875,-0.001343903481028974,-0.036302849650382996,0.025656340643763542
1685734999541779200,20.347779296875,-0.014468779787421227,0.05546656250953674,-0.11602948606014252
1685734999561779200,20.367779296875,-0.05576327070593834,0.03848451003432274,-0.09033824503421783
1685734999581779200,20.387779296875,-0.026912976056337357,-0.005270894151180983,0.026162484660744667
1685734999601779200,20.407779296875,0.02338741160929203,-0.031817350536584854,0.08578293025493622
1685734999621779200,20.427779296875,-0.005288347601890564,-0.006579891312867403,0.04982915148139
1685734999641779200,20.447779296875,0.004904375411570072,-0.09686577320098877,0.0506843626499176
1685734999661779200,20.467779296875,0.028728120028972626,-0.056810468435287476,0.028274333104491234
1685734999681779200,20.487779296875,-0.013631021603941917,0.018308503553271294,-0.0547335259616375
1685734999701779200,20.507779296875,-0.02197369560599327,-0.01342158205807209,-0.04939281940460205
1685734999721779200,20.527779296875,0.012845623306930065,-0.02094395086169243,0.032934363931417465
1685734999741779200,20.547779296875,0.0437903106212616,-0.022340213879942894,0.06236061453819275
1685734999761779200,20.567779296875,0.041346848011016846,-0.025272367522120476,0.05160938575863838
1685734999781779200,20.587779296875,0.02816961333155632,-0.01979203335940838,0.026110125705599785
1685734999801779200,20.607779296875,-0.02007128670811653,0.004241149872541428,0.029880037531256676
1685734999821779200,20.627779296875,-0.011239920742809772,-0.0024434609804302454,-0.02768092229962349
1685734999841779200,20.647779296875,-0.0006632251315750182,0.011554080061614513,-0.08183848857879639
1685734999861779200,20.667779296875,-0.0027925267349928617,0.018727382645010948,-0.05002113804221153
1685734999881779200,20.687779296875,-0.024678954854607582,0.04052654653787613,0.01129228062927723
1685734999901779200,20.707779296875,-0.0015533430268988013,0.019320795312523842,0.015742870047688484
1685734999921779200,20.727779296875,0.006492624990642071,0.02555162087082863,0.04265584796667099
1685734999941779200,20.747779296875,-0.004049163777381182,0.03454006463289261,0.030682887881994247
1685734999961779200,20.767779296875,-0.020542524755001068,0.0014486232539638877,-0.024347342550754547
1685734999981779200,20.787779296875,-0.010000736452639103,0.02782054804265499,-0.06628760695457458
1685735000001779200,20.807779296875,-0.03392919898033142,0.024382250383496284,-0.05695009231567383
1685735000021779200,20.827779296875,-0.0031066860537976027,-0.00027925267932005227,0.01219985168427229
1685735000041779200,20.847779296875,0.02577851340174675,0.0014137167017906904,0.007365289609879255
1685735000061779200,20.867779296875,0.02125811018049717,0.007208209950476885,-0.02082177810370922
1685735000081779200,20.887779296875,-0.01235693134367466,0.045378562062978745,-0.04689699783921242
1685735000101779200,20.907779296875,-0.057910025119781494,0.02445206232368946,0.013596114702522755
1685735000121779200,20.927779296875,-0.030403634533286095,0.0030194194987416267,0.03677408769726753
1685735000141779200,20.947779296875,0.013299409300088882,-0.022392574697732925,0.01616174913942814
1685735000161779200,20.967779296875,0.002478367416188121,-0.0029845130629837513,0.010751227848231792
1685735000181779200,20.987779296875,0.011763518676161766,-0.018064158037304878,-0.005846852902323008
1685735000201779200,21.007779296875,0.042498767375946045,-0.02984512969851494,-0.0337023064494133
1685735000221779200,21.027779296875,0.010384708642959595,-0.002600540639832616,-0.056007616221904755
1685735000241779200,21.047779296875,-0.01507964450865984,-0.008255407214164734,-0.011885692365467548
1685735000261779200,21.067779296875,0.005218534264713526,-0.02998475730419159,-0.00027925267932005227
1685735000281779200,21.087779296875,0.019861847162246704,0.0013962633674964309,0.014224433340132236
1685735000301779200,21.107779296875,-0.01687733456492424,0.020088739693164825,0.011658798903226852
1685735000321779200,21.127779296875,-0.003944444004446268,-0.00094247778179124,0.008726646192371845
1685735000341779200,21.147779296875,0.020367993041872978,0.005235987715423107,-0.05522221699357033
1685735000361779200,21.167779296875,-0.004660028964281082,0.036704275757074356,-0.012758356519043446
1685735000381779200,21.187779296875,-0.035098571330308914,0.017383478581905365,0.04052654653787613
1685735000401779200,21.207779296875,-0.009581857360899448,0.021362829953432083,0.0028448866214603186
1685735000421779200,21.227779296875,0.02569124661386013,-0.05146975815296173,0.04982915148139
1685735000441779200,21.247779296875,0.05307546257972717,-0.03937462717294693,0.04633849114179611
1685735000461779200,21.267779296875,-0.000017453292457503267,0.05619960278272629,-0.06686356663703918
1685735000481779200,21.287779296875,-0.050597093999385834,0.030927233397960663,-0.09424778074026108
1685735000501779200,21.307779296875,0.013473941944539547,0.0031066860537976027,-0.01855284906923771
1685735000521779200,21.327779296875,0.024120450019836426,-0.0024260077625513077,0.010646508075296879
1685735000541779200,21.347779296875,0.0007853981805965304,0.035499997437000275,-0.006422811653465033
1685735000561779200,21.367779296875,0.018221236765384674,0.004380776546895504,-0.03735004737973213
1685735000581779200,21.387779296875,0.05710717290639877,0.0207345113158226,-0.04420918971300125
1685735000601779200,21.407779296875,0.01661553420126438,0.07293730974197388,-0.011938052251935005
1685735000621779200,21.427779296875,-0.01218239776790142,0.016632987186312675,0.043964844197034836
1685735000641779200,21.447779296875,0.01120501384139061,-0.01891936920583248,0.051574479788541794
1685735000661779200,21.467779296875,0.020437804982066154,-0.011815878562629223,0.03436553105711937
1685735000681779200,21.487779296875,-0.0038746309000998735,-0.010018189437687397,0.0012217304902151227
1685735000701779200,21.507779296875,0.00003490658491500653,0.005602506920695305,-0.06428047269582748
1685735000721779200,21.527779296875,0.022916173562407494,0.005532693583518267,-0.08044222742319107
1685735000741779200,21.547779296875,0.026598818600177765,0.0408930629491806,-0.046390850096940994
1685735000761779200,21.567779296875,0.02666863054037094,0.015603243373334408,0.02679080329835415
1685735000781779200,21.587779296875,0.0622209869325161,-0.024748768657445908,0.07639306038618088
1685735000801779200,21.607779296875,0.07511897385120392,0.007208209950476885,-0.0016929693520069122
1685735000821779200,21.627779296875,0.03015928901731968,0.033737216144800186,-0.003228859044611454
1685735000841779200,21.647779296875,0.0013089969288557768,-0.0027052604127675295,0.0679805725812912
1685735000861779200,21.667779296875,-0.04628613218665123,0.06677629798650742,0.011484266258776188
1685735000881779200,21.687779296875,-0.08450884371995926,0.08934340626001358,-0.018762288615107536
1685735000901779200,21.707779296875,0.00045378561480902135,-0.026022858917713165,0.016807520762085915
1685735000921779200,21.727779296875,0.05141739919781685,0.04248131439089775,-0.11362093687057495
1685735000941779200,21.747779296875,-0.01953023485839367,0.08667305111885071,-0.12229522317647934
1685735000961779200,21.767779296875,-0.00855211354792118,-0.002809980185702443,-0.05948081985116005
1685735000981779200,21.787779296875,0.03618067502975464,0.01567305624485016,-0.005951572675257921
1685735001001779200,21.807779296875,-0.019861847162246704,0.06384414434432983,0.039671335369348526
1685735001021779200,21.827779296875,-0.00930260494351387,-0.033021628856658936,0.07192502170801163
1685735001041779200,21.847779296875,0.03481931984424591,0.015707964077591896,-0.05890486389398575
1685735001061779200,21.867779296875,-0.018727382645010948,0.01302015595138073,-0.055431656539440155
1685735001081779200,21.887779296875,-0.03783873841166496,0.03693116828799248,-0.03757693991065025
1685735001101779200,21.907779296875,-0.033510319888591766,0.012845623306930065,-0.0527089424431324
1685735001121779200,21.927779296875,-0.005375613924115896,0.002949606394395232,-0.012304571457207203
1685735001141779200,21.947779296875,0.0006981316837482154,0.020315632224082947,-0.0012391837080940604
1685735001161779200,21.967779296875,-0.002914699725806713,0.005445427261292934,0.04475024342536926
1685735001181779200,21.987779296875,0.011484266258776188,-0.03291691094636917,0.07930775731801987
1685735001201779200,22.007779296875,0.02759365551173687,-0.0009773843921720982,0.03516838327050209
1685735001221779200,22.027779296875,-0.03136356547474861,0.034086279571056366,0.056496307253837585
1685735001241779200,22.047779296875,0.018814649432897568,-0.08562584966421127,0.07974409312009811
1685735001261779200,22.067779296875,0.08464846760034561,-0.04703662171959877,-0.05227261036634445
1685735001281779200,22.087779296875,-0.036302849650382996,0.07981390506029129,-0.007208209950476885
1685735001301779200,22.107779296875,-0.09150761365890503,0.019390607252717018,-0.02967059798538685
1685735001321779200,22.127779296875,-0.04185299575328827,0.07606144994497299,-0.05523966997861862
1685735001341779200,22.147779296875,-0.09545205533504486,0.09155996888875961,0.02396337129175663
1685735001361779200,22.167779296875,-0.03644247353076935,-0.05513495206832886,0.04478514939546585
1685735001381779200,22.187779296875,0.09019861370325089,0.002199114765971899,-0.06630505621433258
1685735001401779200,22.207779296875,0.053040556609630585,-0.01129228062927723,0.02108357660472393
1685735001421779200,22.227779296875,0.041521381586790085,-0.004433136433362961,-0.010629055090248585
1685735001441779200,22.247779296875,-0.005550147034227848,0.11196286976337433,-0.08665559440851212
1685735001461779200,22.267779296875,-0.09791296720504761,0.05028293654322624,0.032445669174194336
1685735001481779200,22.287779296875,-0.06377433240413666,0.05639158934354782,0.03911282867193222
1685735001501779200,22.307779296875,-0.01696459949016571,0.03611086308956146,-0.010908307507634163
1685735001521779200,22.327779296875,-0.0020943949930369854,-0.005672320257872343,-0.011344640515744686
1685735001541779200,22.347779296875,0.0691499412059784,-0.07442083954811096,-0.002722713630646467
1685735001561779200,22.367779296875,0.0639488622546196,-0.04194026067852974,0.004660028964281082
1685735001581779200,22.387779296875,0.0131772356107831,-0.036128316074609756,0.004450589418411255
1685735001601779200,22.407779296875,0.013980086892843246,-0.0165631752461195,-0.010489428415894508
1685735001621779200,22.427779296875,-0.00296705961227417,0.01567305624485016,0.03623303398489952
1685735001641779200,22.447779296875,-0.047944195568561554,0.016231561079621315,0.05738642439246178
1685735001661779200,22.467779296875,-0.030717793852090836,0.0015533430268988013,0.028728120028972626
1685735001681779200,22.487779296875,0.02480112947523594,-0.019250981509685516,0.002373647876083851
1685735001701779200,22.507779296875,-0.009250245057046413,0.013980086892843246,-0.028536133468151093
1685735001721779200,22.527779296875,-0.043388884514570236,0.05061454698443413,-0.08660323917865753
1685735001741779200,22.547779296875,-0.003351032268255949,-0.045779984444379807,0.10719811916351318
1685735001761779200,22.567779296875,0.11192796379327774,-0.16999506950378418,0.25790730118751526
1685735001781779200,22.587779296875,0.1555437445640564,-0.12941616773605347,0.10210175812244415
1685735001801779200,22.607779296875,0.09838420897722244,-0.12957324087619781,0.06372196972370148
1685735001821779200,22.627779296875,0.054192472249269485,-0.08101818710565567,-0.04906120523810387
1685735001841779200,22.647779296875,-0.08461356163024902,0.16322319209575653,-0.15451399981975555
1685735001861779200,22.667779296875,-0.22989477217197418,0.1592787504196167,-0.03289945796132088
1685735001881779200,22.687779296875,-0.19257962703704834,0.05211552977561951,0.020472712814807892
1685735001901779200,22.707779296875,-0.10014699399471283,0.0607723630964756,-0.07189010828733444
1685735001921779200,22.727779296875,-0.07410667836666107,0.04628613218665123,-0.19027578830718994
1685735001941779200,22.747779296875,-0.1011069267988205,0.07407177239656448,-0.13168509304523468
1685735001961779200,22.767779296875,-0.09571385383605957,0.08517206460237503,-0.04328416660428047
1685735001981779200,22.787779296875,-0.07408922910690308,-0.001029744278639555,0.004328416660428047
1685735002001779200,22.807779296875,0.012252211570739746,-0.01877974346280098,-0.0028448866214603186
1685735002021779200,22.827779296875,0.021205751225352287,0.029112091287970543,-0.06408849358558655
1685735002041779200,22.847779296875,-0.00251327408477664,0.0126710906624794,0.0005410520825535059
1685735002061821400,22.867821533203124,0.015428710728883743,-0.05628686770796776,0.10382963716983795
1685735002081779200,22.887779296875,0.08201301842927933,-0.1655968427658081,0.16430529952049255
1685735002101779200,22.907779296875,0.11524409055709839,-0.13442525267601013,0.1374097764492035
1685735002121779200,22.927779296875,0.12170180678367615,-0.06558947265148163,0.10065313428640366
1685735002141779200,22.947779296875,0.15793484449386597,-0.12199851125478745,0.06965608894824982
1685735002161779200,22.967779296875,0.19306832551956177,-0.08244935423135757,-0.019163714721798897
1685735002181779200,22.987779296875,0.1820727437734604,-0.09391617029905319,-0.0012740903766825795
1685735002201779200,23.007779296875,0.16484634578227997,-0.04623377323150635,0.08693484961986542
1685735002221779200,23.027779296875,0.13149310648441315,0.07560766488313675,-0.0038222710136324167
1685735002241779200,23.047779296875,-0.04071853309869766,0.14521139860153198,-0.08025024086236954
1685735002261779200,23.067779296875,-0.1765400469303131,0.13831734657287598,-0.08517206460237503
1685735002281779200,23.087779296875,-0.16833700239658356,0.12726940214633942,-0.0953298807144165
1685735002301779200,23.107779296875,-0.18816395103931427,0.12767083942890167,-0.07824310660362244
1685735002321779200,23.127779296875,-0.153239905834198,0.037053339183330536,-0.02422516979277134
1685735002341779200,23.147779296875,-0.13861404359340668,0.02883283980190754,-0.016685348004102707
1685735002361779200,23.167779296875,-0.0705462098121643,-0.059602994471788406,-0.07157595455646515
1685735002381779200,23.187779296875,-0.03516838327050209,0.03675663471221924,-0.2782229483127594
1685735002401779200,23.207779296875,-0.07899360358715057,0.1641831248998642,-0.11081095039844513
1685735002421779200,23.227779296875,0.0374373123049736,-0.11992157250642776,0.28672268986701965
1685735002441779200,23.247779296875,0.13917255401611328,-0.1774476170539856,0.4855680465698242
1685735002461779200,23.267779296875,0.14364059269428253,-0.17987363040447235,0.38498473167419434
1685735002481779200,23.287779296875,0.15261158347129822,-0.12918926775455475,0.179716557264328
1685735002501779200,23.307779296875,0.15683528780937195,-0.09971065819263458,-0.056356679648160934
1685735002521779200,23.327779296875,0.12793263792991638,-0.0034208453726023436,-0.22216296195983887
1685735002541779200,23.347779296875,0.1872389167547226,-0.019879300147294998,-0.26223573088645935
1685735002561779200,23.367779296875,0.2076767235994339,-0.016755159944295883,-0.103672556579113
1685735002581779200,23.387779296875,0.19024088978767395,-0.00047123889089562,0.022444933652877808
1685735002601779200,23.407779296875,0.09349729120731354,0.11053170263767242,0.013788101263344288
1685735002621779200,23.427779296875,-0.059288833290338516,0.09749408811330795,0.0823620855808258
1685735002641779200,23.447779296875,-0.156119704246521,0.12140510231256485,0.09149015694856644
1685735002661787100,23.467787109375,-0.23305381834506989,0.13571679592132568,0.00855211354792118
1685735002681779200,23.487779296875,-0.22633430361747742,0.07285004109144211,-0.1304633617401123
1685735002701779200,23.507779296875,-0.18622663617134094,0.09295623749494553,-0.25502750277519226
1685735002721779200,23.527779296875,-0.17437584698200226,0.015009831637144089,-0.24418900907039642
1685735002741779200,23.547779296875,-0.12027063965797424,-0.013962633907794952,-0.08939576148986816
1685735002761779200,23.567779296875,-0.0030194194987416267,-0.10838494449853897,0.06723008304834366
1685735002781779200,23.587779296875,0.062029000371694565,-0.07443828880786896,0.08937831223011017
1685735002801779200,23.607779296875,0.09225810319185257,-0.05061454698443413,0.12100367993116379
1685735002821779200,23.627779296875,0.08461356163024902,-0.12088150531053543,0.20699605345726013
1685735002841779200,23.647779296875,0.04216715320944786,-0.01516691129654646,0.15933111310005188
1685735002861779200,23.667779296875,0.02316051907837391,0.07764969766139984,0.014556045643985271
1685735002881779200,23.687779296875,0.05000368133187294,0.042271874845027924,-0.10417870432138443
1685735002901779200,23.707779296875,0.1276359260082245,-0.029740409925580025,-0.08552113175392151
1685735002921779200,23.727779296875,0.12121311575174332,-0.008342674002051353,-0.045867253094911575
1685735002941779200,23.747779296875,0.10375982522964478,0.009424777701497078,-0.049584802240133286
1685735002961779200,23.767779296875,0.080075703561306,0.07492698729038239,-0.0037873645778745413
1685735002981779200,23.787779296875,0.01251401100307703,0.017086774110794067,0.09663888067007065
1685735003001779200,23.807779296875,-0.0303861815482378,0.003036872949451208,0.036651913076639175
1685735003021779200,23.827779296875,-0.09773843735456467,0.12969541549682617,-0.12035790830850601
1685735003041779200,23.847779296875,-0.09119345247745514,-0.012618730776011944,-0.06892304867506027
1685735003061779200,23.867779296875,-0.05996951460838318,-0.018587756901979446,0.0046774824149906635
1685735003081779200,23.887779296875,-0.09608037769794464,-0.003717551240697503,-0.03316125646233559
1685735003101779200,23.907779296875,-0.08765043318271637,-0.06197664141654968,0.016109388321638107
1685735003121779200,23.927779296875,-0.03871140256524086,-0.058974675834178925,0.07754497975111008
1685735003141779200,23.947779296875,-0.07824310660362244,0.010925761424005032,0.026773350313305855
1685735003161779200,23.967779296875,-0.06888814270496368,-0.03207915276288986,0.05129522830247879
1685735003181779200,23.987779296875,0.0213104709982872,-0.0584685280919075,0.05359905958175659
1685735003201779200,24.007779296875,0.08082620054483414,-0.05258677154779434,0.07941248267889023
1685735003221779200,24.027779296875,0.05019566789269447,0.054855696856975555,0.009826203808188438
1685735003241779200,24.047779296875,0.04656538367271423,0.03597123548388481,-0.03450515866279602
1685735003261779200,24.067779296875,0.05026548355817795,0.007609635591506958,-0.040334559977054596
1685735003281779200,24.087779296875,0.08424704521894455,-0.02272418700158596,-0.028064893558621407
1685735003301779200,24.107779296875,0.07438593357801437,0.007347836159169674,-0.03595378249883652
1685735003321779200,24.127779296875,0.056094881147146225,0.0483979806303978,-0.04482005536556244
1685735003341779200,24.147779296875,0.025534166023135185,0.04424409568309784,0.01401499379426241
1685735003361779200,24.167779296875,-0.033684853464365005,0.05152212083339691,0.009861109778285027
1685735003381779200,24.187779296875,-0.037978366017341614,0.04426154866814613,-0.05665338784456253
