time,seconds_elapsed,z,y,x
1685710156690445600,0.256445556640625,-0.0027925267349928617,-0.033859387040138245,-0.12508775293827057
1685710156710445600,0.276445556640625,-0.0015707963611930609,-0.03632030263543129,-0.11040952801704407
1685710156730445600,0.296445556640625,-0.013508847914636135,-0.03267256170511246,-0.07827802002429962
1685710156750445600,0.316445556640625,-0.04738568887114525,-0.01851794309914112,-0.012583823874592781
1685710156770450200,0.3364501953125,-0.027349309995770454,-0.004049163777381182,0.05284857004880905
1685710156790443800,0.35644384765625,-0.004694935865700245,-0.037716563791036606,0.1080184280872345
1685710156810445600,0.376445556640625,0.005044001620262861,-0.022828906774520874,0.07527604699134827
1685710156830443800,0.39644384765625,0.03459242731332779,-0.015603243373334408,0.07656759768724442
1685710156850445600,0.416445556640625,0.04876450076699257,-0.0057072266936302185,0.0723089873790741
1685710156870443800,0.43644384765625,0.056356679648160934,-0.003577925032004714,0.04380776360630989
1685710156890443800,0.45644384765625,0.05672319978475571,-0.005166174378246069,0.052237704396247864
1685710156910445600,0.476445556640625,0.04064871743321419,-0.02857103943824768,0.052726395428180695
1685710156930443800,0.49644384765625,0.021275563165545464,0.00003490658491500653,0.04590215906500816
1685710156950443800,0.51644384765625,0.03274237737059593,0.06201154738664627,-0.006911503616720438
1685710156970445600,0.536445556640625,0.007225662935525179,-0.011484266258776188,-0.038327429443597794
1685710156990445600,0.556445556640625,-0.02197369560599327,-0.054506633430719376,-0.022776545956730843
1685710157010443800,0.57644384765625,-0.030089477077126503,0.03047344833612442,0.005742133129388094
1685710157030443800,0.59644384765625,-0.019303342327475548,0.08405505865812302,0.010506882332265377
1685710157050443800,0.61644384765625,0.0026354470755904913,0.045204028487205505,0.002740166848525405
1685710157070443800,0.63644384765625,0.005811946466565132,-0.0067369709722697735,0.02776818908751011
1685710157090443800,0.65644384765625,0.006771877408027649,0.00143117003608495,0.04977678880095482
1685710157110443800,0.67644384765625,0.006562437862157822,0.004660028964281082,0.09983283281326294
1685710157130461200,0.696461181640625,0.010873401537537575,0.0003665191470645368,0.14208725094795227
1685710157150443800,0.71644384765625,0.03928736224770546,-0.020437804982066154,0.13318607211112976
1685710157170443800,0.73644384765625,0.08368853479623795,-0.05150466784834862,0.1123119369149208
1685710157190443800,0.75644384765625,0.09688322991132736,-0.062168627977371216,0.057735491544008255
1685710157210443800,0.77644384765625,0.08402015268802643,-0.04576253145933151,0.020647244527935982
1685710157230443800,0.79644384765625,0.053791046142578125,-0.026598818600177765,0.0028797932900488377
1685710157250443800,0.81644384765625,0.024504423141479492,0.03378957509994507,0.005096361506730318
1685710157270443800,0.83644384765625,-0.002548180753365159,0.04438372328877449,0.008813912980258465
1685710157290443800,0.85644384765625,-0.007853982038795948,0.02125811018049717,-0.01104793418198824
1685710157310443800,0.87644384765625,0.006911503616720438,0.03335324302315712,-0.027646014466881752
1685710157330443800,0.89644384765625,0.022933626547455788,-0.017069319263100624,-0.03052580915391445
1685710157350443800,0.91644384765625,0.05590289458632469,0.06871361285448074,-0.036564648151397705
1685710157370443800,0.93644384765625,0.06147049739956856,0.04239404574036598,-0.017575465142726898
1685710157390443800,0.95644384765625,0.04038691893219948,-0.021589722484350204,-0.02321287989616394
1685710157410443800,0.97644384765625,0.032620202749967575,0.01904154196381569,-0.0506843626499176
1685710157430443800,0.99644384765625,0.031730085611343384,0.039706241339445114,0.012566370889544487
1685710157450443800,1.01644384765625,0.04539601504802704,0.023439772427082062,0.05775294452905655
1685710157470443800,1.03644384765625,0.06817255914211273,0.03207915276288986,0.006579891312867403
1685710157490443800,1.05644384765625,0.06028367206454277,0.011728612706065178,-0.03206169977784157
1685710157510443800,1.07644384765625,0.04202752932906151,0.012985249981284142,-0.053930673748254776
1685710157530443800,1.09644384765625,0.016982054337859154,0.01302015595138073,-0.04277801886200905
1685710157550445600,1.116445556640625,-0.022689281031489372,0.01633628085255623,-0.008412486873567104
1685710157570468900,1.13646875,-0.05302310362458229,-0.024347342550754547,0.025795966386795044
1685710157590443800,1.15644384765625,-0.0455181859433651,0.029356438666582108,0.0411897711455822
1685710157610443800,1.17644384765625,-0.033597588539123535,0.058538343757390976,0.04749041050672531
1685710157630443800,1.19644384765625,-0.02658136375248432,0.036023594439029694,0.02431243658065796
1685710157650443800,1.21644384765625,-0.022444933652877808,0.011920598335564137,0.0207345113158226
1685710157670443800,1.23644384765625,-0.021903881803154945,0.018657568842172623,0.03366740047931671
1685710157690443800,1.25644384765625,-0.025743605569005013,0.024068091064691544,0.0570199079811573
1685710157710443800,1.27644384765625,-0.022514747455716133,-0.007103490177541971,0.056810468435287476
1685710157730443800,1.29644384765625,-0.017662731930613518,-0.026319565251469612,0.0524296909570694
1685710157750443800,1.31644384765625,-0.03007202222943306,-0.026319565251469612,0.012775810435414314
1685710157770443800,1.33644384765625,-0.014364060014486313,0.028413960710167885,0.0070685832761228085
1685710157790443800,1.35644384765625,-0.03131120651960373,-0.008377579972147942,0.03162536770105362
1685710157810443800,1.37644384765625,-0.04113740846514702,-0.0003665191470645368,0.003996803890913725
1685710157830461200,1.396461181640625,-0.036250486969947815,-0.01762782596051693,-0.018500490114092827
1685710157850443800,1.41644384765625,-0.041346848011016846,-0.029024824500083923,-0.034400440752506256
1685710157870443800,1.43644384765625,-0.060842178761959076,-0.013299409300088882,-0.023352505639195442
1685710157890443800,1.45644384765625,-0.08660323917865753,-0.02909463830292225,0.01080358773469925
1685710157910443800,1.47644384765625,-0.07272786647081375,0.001658062799833715,0.034697145223617554
1685710157930443800,1.49644384765625,-0.046705011278390884,-0.021781709045171738,0.02525491453707218
1685710157950443800,1.51644384765625,-0.026249751448631287,-0.05553637817502022,0.011431906372308731
1685710157970443800,1.53644384765625,-0.023806290701031685,-0.09499827027320862,0.0038746309000998735
1685710157990443800,1.55644384765625,-0.04255112633109093,-0.10070549696683884,-0.002234021434560418
1685710158010443800,1.57644384765625,-0.0665494054555893,-0.07618362456560135,-0.0553094856441021
1685710158030443800,1.59644384765625,-0.054192472249269485,-0.027611108496785164,-0.0792204961180687
1685710158050445600,1.616445556640625,-0.03923500329256058,-0.02932153083384037,-0.07192502170801163
1685710158070443800,1.63644384765625,-0.05323254317045212,-0.035063665360212326,-0.058974675834178925
1685710158090445600,1.656445556640625,-0.05902703478932381,-0.026459190994501114,-0.043737951666116714
1685710158110445600,1.676445556640625,-0.04928809776902199,-0.03534291684627533,-0.03654719516634941
1685710158130445600,1.696445556640625,-0.03344050794839859,-0.039357174187898636,-0.03441789373755455
1685710158150443800,1.71644384765625,-0.032847095280885696,-0.042324233800172806,-0.012339477427303791
1685710158170443800,1.73644384765625,-0.036075957119464874,-0.026459190994501114,0.026546457782387733
1685710158190443800,1.75644384765625,-0.0354301854968071,-0.02157226949930191,0.04979424178600311
1685710158210443800,1.77644384765625,-0.02082177810370922,-0.025272367522120476,0.02727949619293213
1685710158230443800,1.79644384765625,-0.0075747291557490826,-0.04047418385744095,-0.010088003240525723
1685710158250443800,1.81644384765625,-0.010192723013460636,-0.05956808850169182,-0.03323106840252876
1685710158270445600,1.836445556640625,-0.014765485189855099,-0.04811872914433479,-0.019966566935181618
1685710158290443800,1.85644384765625,-0.02370157092809677,-0.00815068744122982,0.0021816615480929613
1685710158310445600,1.876445556640625,-0.03871140256524086,-0.005462880712002516,0.02802998758852482
1685710158330443800,1.89644384765625,-0.03303908184170723,-0.017086774110794067,0.01457349956035614
1685710158350443800,1.91644384765625,0.001745329238474369,-0.016755159944295883,-0.0016231562476605177
1685710158370443800,1.93644384765625,0.014311700128018856,-0.016353735700249672,-0.019984019920229912
1685710158390443800,1.95644384765625,0.010594148188829422,-0.00830776710063219,-0.02755874954164028
1685710158410443800,1.97644384765625,0.014643312431871891,-0.0016929693520069122,-0.02298598550260067
1685710158430443800,1.99644384765625,0.02984512969851494,0.0028797932900488377,-0.014748032204806805
1685710158450443800,2.01644384765625,0.03865904361009598,0.0031939526088535786,-0.0075747291557490826
1685710158470443800,2.03644384765625,0.04548327997326851,-0.003263765713199973,-0.0020943949930369854
1685710158490443800,2.05644384765625,0.046390850096940994,0.00930260494351387,0.007941247895359993
1685710158510443800,2.07644384765625,0.042935099452733994,0.03794345632195473,0.02963569015264511
1685710158530461200,2.096461181640625,0.0362853966653347,0.04387757554650307,0.03087487444281578
1685710158550443800,2.11644384765625,0.01045452244579792,0.03925245627760887,0.0313984714448452
1685710158570468900,2.13646875,-0.020961403846740723,0.03174753859639168,0.024172810837626457
1685710158590443800,2.15644384765625,0.009477137587964535,0.037716563791036606,0.03597123548388481
1685710158610443800,2.17644384765625,0.036686819046735764,0.026459190994501114,0.042987458407878876
1685710158630443800,2.19644384765625,0.04265584796667099,0.02591813914477825,0.013194689527153969
1685710158650443800,2.21644384765625,0.0524122379720211,0.024591689929366112,0.011397000402212143
1685710158670443800,2.23644384765625,0.041434116661548615,0.023335052654147148,0.006318091880530119
1685710158690443800,2.25644384765625,0.01820378378033638,0.043022364377975464,0.009948376566171646
1685710158710443800,2.27644384765625,-0.01771509274840355,0.035150930285453796,0.010279988870024681
1685710158730443800,2.29644384765625,-0.02972295694053173,0.04749041050672531,0.028955012559890747
1685710158750443800,2.31644384765625,-0.03157300502061844,0.051487211138010025,0.02007128670811653
1685710158770443800,2.33644384765625,-0.020385446026921272,0.050736721605062485,-0.013072515837848186
1685710158790443800,2.35644384765625,-0.015620696358382702,0.016318827867507935,-0.03394665569067001
1685710158810443800,2.37644384765625,-0.011222466826438904,0.01408480666577816,-0.022602014243602753
1685710158830443800,2.39644384765625,-0.013491394929587841,0.03618067502975464,-0.004310963209718466
1685710158850443800,2.41644384765625,0.00008726646046852693,0.020001472905278206,-0.013212142512202263
1685710158870443800,2.43644384765625,0.005742133129388094,-0.0005585053586401045,-0.012740903533995152
1685710158890443800,2.45644384765625,-0.013875367119908333,0.0024260077625513077,0.006230825558304787
1685710158910443800,2.47644384765625,-0.040107667446136475,0.01045452244579792,0.0409105159342289
1685710158930443800,2.49644384765625,-0.05256931856274605,0.002286381321027875,0.047019168734550476
1685710158950443800,2.51644384765625,-0.030543262138962746,-0.003490658476948738,0.016528267413377762
1685710158970443800,2.53644384765625,-0.0161268413066864,-0.026424285024404526,-0.02768092229962349
1685710158990443800,2.55644384765625,-0.012810716405510902,-0.03429571911692619,-0.0385892279446125
1685710159010443800,2.57644384765625,-0.036739181727170944,-0.021048670634627342,-0.0011868239380419254
1685710159030443800,2.59644384765625,-0.06864380091428757,-0.016231561079621315,0.04181808978319168
1685710159050445600,2.616445556640625,-0.08880235254764557,-0.012217304669320583,0.0875806212425232
1685710159070443800,2.63644384765625,-0.07138396799564362,-0.0024434609804302454,0.06819001585245132
1685710159090443800,2.65644384765625,-0.01647590845823288,-0.012548916973173618,0.004642575979232788
1685710159110443800,2.67644384765625,0.008290314115583897,-0.044488441199064255,-0.05363396927714348
1685710159130443800,2.69644384765625,0.010559242218732834,-0.04871213808655739,-0.08272860944271088
1685710159150443800,2.71644384765625,-0.014311700128018856,-0.04145156964659691,-0.06801547855138779
1685710159170443800,2.73644384765625,-0.04181808978319168,-0.021135937422513962,-0.03162536770105362
1685710159190443800,2.75644384765625,-0.06927211582660675,-0.01886700838804245,0.003263765713199973
1685710159210443800,2.77644384765625,-0.053930673748254776,-0.013823007233440876,0.027611108496785164
1685710159230461200,2.796461181640625,-0.02551671303808689,-0.012880530208349228,0.016458455473184586
1685710159250443800,2.81644384765625,0.00823795422911644,-0.02572615258395672,-0.008045967668294907
1685710159270443800,2.83644384765625,0.032620202749967575,-0.04098033159971237,-0.02658136375248432
1685710159290443800,2.85644384765625,0.031241392716765404,-0.03710569813847542,-0.030613074079155922
1685710159310443800,2.87644384765625,0.018622662872076035,-0.016598081216216087,-0.0357094369828701
1685710159330443800,2.89644384765625,0.0031415927223861217,-0.005969026125967503,-0.04459316283464432
1685710159350443800,2.91644384765625,-0.021293016150593758,-0.018744835630059242,-0.02295107953250408
1685710159370443800,2.93644384765625,-0.03298672288656235,-0.004398229531943798,0.014433872886002064
1685710159390443800,2.95644384765625,-0.026075219735503197,0.026895523071289062,0.026546457782387733
1685710159410443800,2.97644384765625,-0.013159782625734806,0.018989183008670807,0.010471975430846214
1685710159430443800,2.99644384765625,0.006859143730252981,0.0031066860537976027,0.009075712412595749
1685710159450443800,3.01644384765625,0.021729348227381706,0.01120501384139061,-0.005899212788790464
1685710159470443800,3.03644384765625,0.022532200440764427,-0.0030194194987416267,-0.0154810706153512
1685710159490443800,3.05644384765625,0.027977628633379936,0.016772614791989326,0.003403391921892762
1685710159510443800,3.07644384765625,0.026720991358160973,0.020751964300870895,0.009669124148786068
1685710159530443800,3.09644384765625,0.009564404375851154,0.008796459063887596,-0.011972958222031593
1685710159550443800,3.11644384765625,0.005218534264713526,-0.00502654816955328,0.010751227848231792
1685710159570473500,3.136473388671875,-0.007923794910311699,0.023003440350294113,0.03183480724692345
1685710159590443800,3.15644384765625,-0.00678933085873723,0.03632030263543129,-0.012042772024869919
1685710159610443800,3.17644384765625,-0.00022689280740451068,-0.0019896754529327154,-0.054506633430719376
1685710159630443800,3.19644384765625,-0.009180432185530663,-0.01507964450865984,-0.05152212083339691
1685710159650443800,3.21644384765625,-0.026389379054307938,0.003857177682220936,-0.0262148454785347
1685710159670443800,3.23644384765625,-0.010925761424005032,0.011554080061614513,0.018483037129044533
1685710159690443800,3.25644384765625,0.008709193207323551,0.01202531810849905,0.030106930062174797
1685710159710443800,3.27644384765625,0.02897246554493904,-0.007731808349490166,-0.0014486232539638877
1685710159730443800,3.29644384765625,0.028780478984117508,-0.00823795422911644,-0.0008377580670639873
1685710159750443800,3.31644384765625,0.009407324716448784,0.01219985168427229,0.0262148454785347
1685710159770443800,3.33644384765625,-0.011222466826438904,0.017174039036035538,0.055606190115213394
1685710159790443800,3.35644384765625,-0.023928463459014893,0.03396410867571831,0.07655014097690582
1685710159810443800,3.37644384765625,-0.010035643354058266,0.026145031675696373,0.04611159861087799
1685710159830443800,3.39644384765625,0.02254965342581272,-0.006387905217707157,-0.013631021603941917
1685710159850443800,3.41644384765625,0.025673793628811836,-0.028466319665312767,-0.06923720985651016
1685710159870443800,3.43644384765625,0.009599311277270317,-0.017907077446579933,-0.0648040771484375
1685710159890443800,3.45644384765625,-0.028815384954214096,0.008726646192371845,-0.010332348756492138
1685710159910443800,3.47644384765625,-0.05527457594871521,0.022183135151863098,0.03445279970765114
1685710159930461200,3.496461181640625,-0.049235738813877106,0.005951572675257921,0.049584802240133286
1685710159950443800,3.51644384765625,-0.018971728160977364,-0.003036872949451208,0.05258677154779434
1685710159970443800,3.53644384765625,0.013159782625734806,0.0002617993741296232,0.04057890549302101
1685710159990443800,3.55644384765625,0.03190461918711662,-0.009773843921720982,0.00898844562470913
1685710160010443800,3.57644384765625,0.03900810703635216,-0.02485348843038082,-0.01851794309914112
1685710160030443800,3.59644384765625,0.03410373255610466,-0.014940018765628338,-0.028117254376411438
1685710160050445600,3.616445556640625,0.018797196447849274,0.003036872949451208,-0.025569073855876923
1685710160070443800,3.63644384765625,0.00038397242315113544,0.004782202187925577,-0.011536626145243645
1685710160090443800,3.65644384765625,-0.0073129297234117985,0.009913469664752483,0.014625859446823597
1685710160110443800,3.67644384765625,-0.006911503616720438,0.020088739693164825,0.029443703591823578
1685710160130443800,3.69644384765625,0.0036651913542300463,0.017645278945565224,0.02015855349600315
1685710160150443800,3.71644384765625,0.019687313586473465,-0.0011344640515744686,0.022846359759569168
1685710160170443800,3.73644384765625,0.033283427357673645,0.001745329238474369,0.03593632951378822
1685710160190443800,3.75644384765625,0.03757693991065025,0.0013264502631500363,0.02281145378947258
1685710160210443800,3.77644384765625,0.03928736224770546,-0.00970403105020523,0.0040317103266716
1685710160230443800,3.79644384765625,0.03495894372463226,-0.008412486873567104,-0.005881759338080883
1685710160250443800,3.81644384765625,0.027523841708898544,-0.005916666239500046,-0.015358896926045418
1685710160270443800,3.83644384765625,0.01820378378033638,-0.016842426732182503,-0.0006981316837482154
1685710160290443800,3.85644384765625,-0.007225662935525179,-0.015184364281594753,0.007853982038795948
1685710160310443800,3.87644384765625,-0.028239427134394646,0.0008203047327697277,0.0009599310578778386
1685710160330443800,3.89644384765625,-0.03073524869978428,-0.009512044489383698,-0.004171337001025677
1685710160350443800,3.91644384765625,-0.027401668950915337,-0.028989918529987335,-0.01780235767364502
1685710160370443800,3.93644384765625,-0.028902651742100716,-0.01984439417719841,-0.019826939329504967
1685710160390443800,3.95644384765625,-0.03460988029837608,-0.012932890094816685,-0.0047996556386351585
1685710160410443800,3.97644384765625,-0.026319565251469612,-0.017069319263100624,0.01014036312699318
1685710160430443800,3.99644384765625,0.004206243436783552,-0.017732545733451843,0.01120501384139061
1685710160450443800,4.01644384765625,0.023404864594340324,-0.022567106410861015,-0.006300638429820538
1685710160470443800,4.03644384765625,0.02860594540834427,-0.03157300502061844,-0.024661501869559288
1685710160490443800,4.05644384765625,0.020053833723068237,-0.019512781873345375,-0.010384708642959595
1685710160510443800,4.07644384765625,0.0009075712296180427,0.004014257341623306,0.03597123548388481
1685710160530443800,4.09644384765625,0.008534659631550312,0.021502455696463585,0.0486772321164608
1685710160550443800,4.11644384765625,0.03593632951378822,0.0028448866214603186,0.009878563694655895
1685710160570468900,4.13646875,0.05469861999154091,-0.012234757654368877,-0.025761060416698456
1685710160590443800,4.15644384765625,0.05117305368185043,0.002687806962057948,-0.036477379500865936
1685710160610443800,4.17644384765625,0.04054399952292442,0.019024088978767395,-0.013404129073023796
1685710160630461200,4.196461181640625,0.01935570128262043,0.018971728160977364,0.024486970156431198
1685710160650443800,4.21644384765625,0.022392574697732925,0.020367993041872978,0.02883283980190754
1685710160670443800,4.23644384765625,0.0411897711455822,0.009529497474431992,-0.0012217304902151227
1685710160690443800,4.25644384765625,0.058259088546037674,-0.0021816615480929613,-0.028187068179249763
1685710160710445600,4.276445556640625,0.040631264448165894,0.007016223389655352,-0.026075219735503197
1685710160730443800,4.29644384765625,-0.004328416660428047,0.0071907564997673035,-0.015254177153110504
1685710160750443800,4.31644384765625,-0.010192723013460636,0.02497566118836403,0.03906046971678734
1685710160770443800,4.33644384765625,-0.01745329238474369,0.023439772427082062,0.046879544854164124
1685710160790443800,4.35644384765625,0.004049163777381182,0.019111355766654015,0.018186330795288086
1685710160810443800,4.37644384765625,0.02883283980190754,0.00015707963029854,-0.03707079216837883
1685710160830443800,4.39644384765625,0.034173548221588135,-0.0035953782498836517,-0.07202973961830139
1685710160850443800,4.41644384765625,0.00996582955121994,0.003630284918472171,-0.042010076344013214
1685710160870443800,4.43644384765625,-0.016528267413377762,0.02768092229962349,0.004956734832376242
1685710160890443800,4.45644384765625,-0.035150930285453796,0.04473278671503067,0.03769911080598831
1685710160910443800,4.47644384765625,-0.028274333104491234,0.04101523756980896,0.04199262335896492
1685710160930443800,4.49644384765625,-0.0018675023457035422,0.030281461775302887,0.02090904489159584
1685710160950443800,4.51644384765625,0.022479841485619545,0.017243852838873863,-0.021275563165545464
1685710160970443800,4.53644384765625,0.03476695716381073,0.0005585053586401045,-0.03644247353076935
1685710160990443800,4.55644384765625,0.03087487444281578,0.004485496319830418,-0.021450096741318703
1685710161010443800,4.57644384765625,0.011484266258776188,0.013805554248392582,0.0165631752461195
1685710161030443800,4.59644384765625,-0.006544984877109528,0.02577851340174675,0.04256857931613922
1685710161050445600,4.616445556640625,0.007941247895359993,0.022165682166814804,0.055920347571372986
1685710161070443800,4.63644384765625,0.03499384969472885,0.01869247667491436,0.01624901592731476
1685710161090443800,4.65644384765625,0.04253367334604263,-0.006126105785369873,-0.011135200969874859
1685710161110443800,4.67644384765625,0.018238689750432968,-0.0009599310578778386,-0.02755874954164028
1685710161130443800,4.69644384765625,0.0012915435945615172,0.01687733456492424,-0.004974188283085823
1685710161150443800,4.71644384765625,-0.01722639985382557,0.008255407214164734,-0.004956734832376242
1685710161170443800,4.73644384765625,-0.02099631167948246,-0.0025656339712440968,-0.005916666239500046
1685710161190443800,4.75644384765625,-0.015498523600399494,0.00041887903353199363,-0.00010471975838299841
1685710161210443800,4.77644384765625,-0.010314895771443844,0.0015009831404313445,0.00013962633966002613
1685710161230443800,4.79644384765625,-0.01492256484925747,-0.007888888008892536,-0.008726646192371845
1685710161250443800,4.81644384765625,-0.03265510872006416,-0.00205948855727911,0.014433872886002064
1685710161270443800,4.83644384765625,-0.04284783452749252,0.0037873645778745413,0.04269075393676758
1685710161290443800,4.85644384765625,-0.038554321974515915,0.005218534264713526,0.0659385398030281
1685710161310443800,4.87644384765625,-0.04459316283464432,0.004694935865700245,0.07253587990999222
1685710161330461200,4.896461181640625,-0.030054569244384766,-0.0026703537441790104,0.0475253164768219
1685710161350443800,4.91644384765625,-0.007679448463022709,-0.011972958222031593,-0.0028623400721699
1685710161370443800,4.93644384765625,0.0003665191470645368,-0.018273597583174706,-0.046617742627859116
1685710161390443800,4.95644384765625,-0.008115780539810658,-0.03551745042204857,-0.05612978711724281
1685710161410443800,4.97644384765625,-0.025185100734233856,-0.023579398170113564,-0.005899212788790464
1685710161430443800,4.99644384765625,-0.041032690554857254,0.014608405530452728,0.03588397055864334
1685710161450443800,5.01644384765625,-0.03719296678900719,0.01855284906923771,0.04906120523810387
1685710161470443800,5.03644384765625,-0.02874557301402092,-0.006946410518139601,0.034033920615911484
1685710161490443800,5.05644384765625,-0.005794493015855551,-0.009442231617867947,0.00012217304902151227
1685710161510443800,5.07644384765625,0.004066617228090763,-0.01624901592731476,-0.018797196447849274
1685710161530445600,5.096445556640625,0.004834562074393034,-0.019024088978767395,-0.016283921897411346
1685710161550443800,5.11644384765625,0.008098327554762363,-0.008813912980258465,-0.02439970336854458
1685710161570473500,5.136473388671875,0.007941247895359993,-0.013281955383718014,-0.020525071769952774
1685710161590443800,5.15644384765625,-0.005323254037648439,-0.017959438264369965,-0.008028514683246613
1685710161610445600,5.176445556640625,-0.015376350842416286,-0.000715585018042475,0.00143117003608495
1685710161630445600,5.196445556640625,-0.021781709045171738,0.007173303049057722,0.0018325956771150231
1685710161650443800,5.21644384765625,-0.025761060416698456,-0.005777040030807257,-0.0033684854861348867
1685710161670443800,5.23644384765625,-0.01473057921975851,-0.006370451766997576,0.00427605677396059
1685710161690443800,5.25644384765625,0.0060388389974832535,0.008185594342648983,0.0010122909443452954
1685710161710443800,5.27644384765625,0.025830872356891632,-0.0068765971809625626,-0.010227628983557224
1685710161730443800,5.29644384765625,0.03422590717673302,-0.02042035199701786,-0.003263765713199973
1685710161750443800,5.31644384765625,0.02410299703478813,-0.0023387412074953318,0.029688050970435143
1685710161770443800,5.33644384765625,0.03419100120663643,0.02122320421040058,0.025080380961298943
1685710161790443800,5.35644384765625,0.04672246426343918,0.006230825558304787,-0.022968532517552376
1685710161810443800,5.37644384765625,0.038467057049274445,-0.006457718089222908,-0.04331907257437706
1685710161830443800,5.39644384765625,0.022863812744617462,0.019565140828490257,-0.03923500329256058
1685710161850443800,5.41644384765625,0.013456488028168678,0.035988688468933105,-0.017331119626760483
1685710161870443800,5.43644384765625,0.012810716405510902,0.025970499962568283,0.008953538723289967
1685710161890443800,5.45644384765625,0.012164944782853127,0.025987952947616577,0.026371924206614494
1685710161910443800,5.47644384765625,0.021013764664530754,0.02932153083384037,0.040194932371377945
1685710161930445600,5.496445556640625,0.02644173800945282,0.01975712738931179,0.047280970960855484
1685710161950445600,5.516445556640625,0.025167647749185562,0.01096066739410162,0.04740314185619354
1685710161970443800,5.53644384765625,0.01129228062927723,0.01377064734697342,0.034260813146829605
1685710161990443800,5.55644384765625,0.0013613568153232336,0.020350538194179535,0.018325956538319588
1685710162010443800,5.57644384765625,-0.014556045643985271,0.012967796064913273,0.005113814491778612
1685710162030461200,5.596461181640625,-0.0328296422958374,0.008866272866725922,-0.02569124661386013
1685710162050445600,5.616445556640625,-0.04459316283464432,0.004590216092765331,-0.019198622554540634
1685710162070443800,5.63644384765625,-0.03358013555407524,0.012461651116609573,-0.006475171539932489
1685710162090443800,5.65644384765625,-0.015568336471915245,0.0021293016616255045,-0.009075712412595749
1685710162110443800,5.67644384765625,-0.009250245057046413,-0.01441641990095377,-0.004014257341623306
1685710162130443800,5.69644384765625,-0.00251327408477664,-0.014451325871050358,0.016720253974199295
1685710162150443800,5.71644384765625,0.007592182140797377,0.0003665191470645368,0.02918190509080887
1685710162170443800,5.73644384765625,0.0073303827084600925,-0.00019198621157556772,0.01754055917263031
1685710162190443800,5.75644384765625,-0.006649704650044441,-0.008377579972147942,0.009878563694655895
1685710162210443800,5.77644384765625,-0.016353735700249672,-0.003717551240697503,0.007225662935525179
1685710162230443800,5.79644384765625,-0.020263273268938065,-0.005829399451613426,-0.000052359879191499203
1685710162250443800,5.81644384765625,-0.017208946868777275,-0.009040805511176586,-0.019914206117391586
1685710162270445600,5.836445556640625,-0.00617846567183733,-0.014625859446823597,-0.03689625859260559
1685710162290445600,5.856445556640625,-0.003351032268255949,-0.02108357660472393,-0.0478220209479332
1685710162310443800,5.87644384765625,-0.010070549324154854,-0.01754055917263031,-0.020437804982066154
1685710162330445600,5.896445556640625,-0.02200860157608986,-0.0005759586347267032,0.028763025999069214
1685710162350445600,5.916445556640625,-0.021031217649579048,0.0023038345389068127,0.054768431931734085
1685710162370443800,5.93644384765625,-0.016685348004102707,-0.007347836159169674,0.06448991596698761
1685710162390445600,5.956445556640625,0.0012391837080940604,-0.0028972465079277754,0.05546656250953674
1685710162410445600,5.976445556640625,0.02122320421040058,-0.007976154796779156,-0.005515240598469973
1685710162430445600,5.996445556640625,0.023230332881212234,-0.02802998758852482,-0.06332054734230042
1685710162450445600,6.016445556640625,0.016912240535020828,-0.028797931969165802,-0.076602503657341
1685710162470443800,6.03644384765625,-0.002914699725806713,-0.0028797932900488377,-0.048520151525735855
1685710162490445600,6.056445556640625,-0.020891591906547546,0.012967796064913273,-0.004886921960860491
1685710162510445600,6.076445556640625,-0.019425515085458755,0.00708603672683239,0.018762288615107536
1685710162530445600,6.096445556640625,-0.0038920841179788113,-0.003944444004446268,0.017610372975468636
1685710162550445600,6.116445556640625,0.009023352526128292,0.0076445420272648335,0.014433872886002064
1685710162570473500,6.136473388671875,0.008203047327697277,0.013072515837848186,0.01607448235154152
1685710162590445600,6.156445556640625,0.015515976585447788,-0.007888888008892536,-0.0038746309000998735
1685710162610445600,6.176445556640625,0.01993165910243988,-0.012688543647527695,-0.0224623866379261
1685710162630445600,6.196445556640625,0.012391837313771248,-0.0034208453726023436,0.0009599310578778386
1685710162650443800,6.21644384765625,-0.002146754879504442,0.0037350046914070845,0.024207716807723045
1685710162670445600,6.236445556640625,-0.016353735700249672,0.007661995477974415,0.04625122621655464
1685710162690445600,6.256445556640625,-0.030438542366027832,0.02209586836397648,0.0685565322637558
1685710162710445600,6.276445556640625,-0.024068091064691544,0.026825711131095886,0.046216320246458054
1685710162730461200,6.296461181640625,-0.005218534264713526,-0.0013962633674964309,-0.0024958208668977022
1685710162750445600,6.316445556640625,0.0031939526088535786,-0.006126105785369873,-0.025569073855876923
1685710162770445600,6.336445556640625,0.006981316953897476,0.002146754879504442,-0.03574434295296669
1685710162790445600,6.356445556640625,0.007871435023844242,0.0008726646192371845,-0.029164452105760574
1685710162810445600,6.376445556640625,0.007016223389655352,-0.003717551240697503,-0.005986479111015797
1685710162830445600,6.396445556640625,0.012287117540836334,0.008220500312745571,0.007557275705039501
1685710162850445600,6.416445556640625,0.02839650772511959,0.0047996556386351585,-0.0074525559321045876
1685710162870445600,6.436445556640625,0.030927233397960663,-0.010506882332265377,-0.008028514683246613
1685710162890445600,6.456445556640625,0.017296213656663895,0.001658062799833715,-0.00043633230961859226
1685710162910445600,6.476445556640625,0.0015358896926045418,0.014643312431871891,0.005550147034227848
1685710162930445600,6.496445556640625,-0.009634217247366905,0.014468779787421227,0.012164944782853127
1685710162950445600,6.516445556640625,-0.010384708642959595,0.012932890094816685,0.017174039036035538
1685710162970445600,6.536445556640625,0.0017278759041801095,0.0074525559321045876,0.01096066739410162
1685710162990445600,6.556445556640625,0.019303342327475548,-0.0011519172694534063,-0.004921828396618366
1685710163010445600,6.576445556640625,0.02839650772511959,-0.002600540639832616,-0.013456488028168678
1685710163030445600,6.596445556640625,0.010471975430846214,-0.008621926419436932,-0.00855211354792118
1685710163050445600,6.616445556640625,-0.004782202187925577,0.0018500490114092827,-0.003036872949451208
1685710163070445600,6.636445556640625,-0.02134537696838379,0.009040805511176586,0.013840461149811745
1685710163090445600,6.656445556640625,-0.02617993950843811,0.0003665191470645368,0.02295107953250408
1685710163110445600,6.676445556640625,-0.01621410809457302,-0.0019198621157556772,0.01820378378033638
1685710163130445600,6.696445556640625,0.007853982038795948,0.007347836159169674,-0.0016929693520069122
1685710163150445600,6.716445556640625,0.0161268413066864,0.001658062799833715,-0.011623892933130264
1685710163170445600,6.736445556640625,0.025272367522120476,-0.006143558770418167,-0.01630137488245964
1685710163190445600,6.756445556640625,0.01886700838804245,-0.013892821036279202,-0.006300638429820538
1685710163210445600,6.776445556640625,0.010489428415894508,0.00518362782895565,0.015847589820623398
1685710163230445600,6.796445556640625,0.009983283467590809,0.007714355364441872,0.01012290921062231
1685710163250445600,6.816445556640625,0.017645278945565224,-0.002024581888690591,-0.011746065691113472
1685710163270445600,6.836445556640625,0.012287117540836334,-0.00815068744122982,-0.016406094655394554
1685710163290445600,6.856445556640625,0.00188495556358248,0.001117010717280209,0.00027925267932005227
1685710163310445600,6.876445556640625,-0.0017802357906475663,0.009878563694655895,0.017086774110794067
1685710163330445600,6.896445556640625,0.0012217304902151227,-0.0005410520825535059,0.015882495790719986
1685710163350445600,6.916445556640625,0.011501720175147057,-0.010506882332265377,-0.004904375411570072
1685710163370445600,6.936445556640625,0.0161268413066864,-0.012147491797804832,-0.022479841485619545
1685710163390445600,6.956445556640625,0.008639379404485226,-0.007679448463022709,-0.005445427261292934
1685710163410445600,6.976445556640625,-0.007819075137376785,-0.010402162559330463,0.01710422709584236
1685710163430461200,6.996461181640625,-0.027122415602207184,-0.006928957067430019,0.03431317210197449
1685710163450445600,7.016445556640625,-0.02342231757938862,0.0017278759041801095,0.03810053691267967
1685710163470445600,7.036445556640625,-0.013596114702522755,-0.00996582955121994,0.010646508075296879
1685710163490445600,7.056445556640625,-0.009005898609757423,-0.023439772427082062,-0.009372417815029621
1685710163510445600,7.076445556640625,0.0011344640515744686,-0.02007128670811653,-0.009686577133834362
1685710163530445600,7.096445556640625,0.0020420351065695286,-0.017662731930613518,0.001745329238474369
1685710163550445600,7.116445556640625,-0.007609635591506958,-0.011484266258776188,0.015062191523611546
1685710163570470400,7.136470458984375,-0.004869468510150909,-0.009110618382692337,0.024661501869559288
1685710163590445600,7.156445556640625,0.007853982038795948,-0.015027284622192383,0.02378883771598339
1685710163610445600,7.176445556640625,0.012007865123450756,-0.01748819835484028,0.011222466826438904
1685710163630445600,7.196445556640625,0.005846852902323008,-0.005113814491778612,0.008639379404485226
1685710163650445600,7.216445556640625,0.0033859387040138245,-0.007504915818572044,-0.00029670598451048136
1685710163670445600,7.236445556640625,0.0017802357906475663,-0.007522369269281626,-0.002687806962057948
1685710163690445600,7.256445556640625,0.0006457717972807586,-0.011641345918178558,-0.0057246801443398
1685710163710445600,7.276445556640625,0.00040142572834156454,-0.002478367416188121,0.0025656339712440968
1685710163730445600,7.296445556640625,0.005358160939067602,0.0033859387040138245,-0.0028623400721699
1685710163750443800,7.31644384765625,0.0091455252841115,-0.013700834475457668,0.00617846567183733
1685710163770443800,7.33644384765625,0.005846852902323008,-0.0055850534699857235,0.02082177810370922
1685710163790445600,7.356445556640625,0.004241149872541428,0.01171115878969431,0.026162484660744667
1685710163810443800,7.37644384765625,0.001745329238474369,0.002600540639832616,0.005759586580097675
1685710163830443800,7.39644384765625,0.0005759586347267032,-0.01286307629197836,-0.010594148188829422
1685710163850443800,7.41644384765625,0.001029744278639555,0.0019373154500499368,-0.013089969754219055
1685710163870443800,7.43644384765625,0.002809980185702443,0.020298179239034653,-0.00823795422911644
1685710163890443800,7.45644384765625,0.012077677994966507,0.014974924735724926,-0.0004886921960860491
1685710163910443800,7.47644384765625,0.0345575176179409,0.008325220085680485,-0.0020769417751580477
1685710163930443800,7.49644384765625,0.04836307466030121,0.006946410518139601,-0.002251474652439356
1685710163950443800,7.51644384765625,0.044540803879499435,0.008691739290952682,-0.011588986031711102
1685710163970443800,7.53644384765625,0.03132865950465202,0.010995574295520782,-0.01984439417719841
1685710163990443800,7.55644384765625,0.013945180922746658,0.015707964077591896,-0.009581857360899448
1685710164010443800,7.57644384765625,-0.0073129297234117985,0.017016960307955742,0.01080358773469925
1685710164030443800,7.59644384765625,-0.02338741160929203,0.01713913306593895,0.02258456125855446
1685710164050445600,7.616445556640625,-0.01335176918655634,0.013229595497250557,0.03862413763999939
1685710164070445600,7.636445556640625,0.013613567687571049,0.011798425577580929,0.02670353837311268
1685710164090445600,7.656445556640625,0.032934363931417465,0.0008552113431505859,0.0006108652451075613
1685710164110445600,7.676445556640625,0.03216641768813133,-0.008482299745082855,-0.010018189437687397
1685710164130461200,7.696461181640625,0.005270894151180983,-0.004310963209718466,-0.026022858917713165
1685710164150445600,7.716445556640625,-0.017435839399695396,0.019024088978767395,0.01647590845823288
1685710164170445600,7.736445556640625,-0.04881685972213745,0.017174039036035538,0.045605454593896866
1685710164190445600,7.756445556640625,-0.04619886353611946,0.034260813146829605,0.032358404248952866
1685710164210445600,7.776445556640625,-0.03824016451835632,0.022706734016537666,0.026860617101192474
1685710164230443800,7.79644384765625,-0.032218776643276215,0.011815878562629223,0.019826939329504967
1685710164250443800,7.81644384765625,-0.01473057921975851,0.006108652334660292,0.014433872886002064
1685710164270443800,7.83644384765625,0.005951572675257921,0.0038222710136324167,-0.00188495556358248
1685710164290443800,7.85644384765625,0.013823007233440876,-0.005515240598469973,-0.022479841485619545
1685710164310443800,7.87644384765625,0.010349802672863007,-0.018395770341157913,-0.026947883889079094
1685710164330443800,7.89644384765625,0.006457718089222908,-0.006841690745204687,-0.021851522848010063
1685710164350443800,7.91644384765625,-0.004852015525102615,0.010070549324154854,-0.01080358773469925
1685710164370443800,7.93644384765625,-0.02085668407380581,0.002914699725806713,0.0008901178953237832
1685710164390443800,7.95644384765625,-0.03164282068610191,0.003228859044611454,0.008045967668294907
1685710164410443800,7.97644384765625,-0.025621432811021805,0.016283921897411346,0.016528267413377762
1685710164430443800,7.99644384765625,-0.009372417815029621,0.009407324716448784,-0.002251474652439356
1685710164450443800,8.01644384765625,0.003717551240697503,-0.00905825849622488,-0.011222466826438904
1685710164470443800,8.03644384765625,0.013212142512202263,-0.013875367119908333,-0.01202531810849905
1685710164490443800,8.05644384765625,0.012566370889544487,-0.0068765971809625626,-0.008848818950355053
1685710164510443800,8.07644384765625,-0.002775073517113924,0.0015533430268988013,0.01029744278639555
1685710164530443800,8.09644384765625,-0.01820378378033638,0.0015707963611930609,0.034836772829294205
1685710164550443800,8.11644384765625,-0.026825711131095886,0.007941247895359993,0.03796090930700302
1685710164570473500,8.136473388671876,-0.03099704720079899,0.008970992639660835,0.02701769582927227
1685710164590443800,8.15644384765625,-0.024155355989933014,0.004764748737215996,0.0010122909443452954
1685710164610443800,8.17644384765625,-0.0119555052369833,0.008918632753193378,-0.02453932911157608
1685710164630443800,8.19644384765625,-0.012496557086706161,0.0007679448463022709,-0.03659955412149429
1685710164650443800,8.21644384765625,-0.013247049413621426,-0.00047123889089562,-0.021467549726366997
1685710164670443800,8.23644384765625,-0.01342158205807209,0.0034208453726023436,0.005096361506730318
1685710164690443800,8.25644384765625,-0.011100294068455696,0.008342674002051353,0.025272367522120476
1685710164710443800,8.27644384765625,0.00043633230961859226,0.01523672416806221,0.01696459949016571
1685710164730443800,8.29644384765625,0.007801621686667204,0.0067544239573180676,0.006021386012434959
1685710164750443800,8.31644384765625,0.005916666239500046,-0.007661995477974415,0.008499753661453724
1685710164770443800,8.33644384765625,0.00094247778179124,0.00563741335645318,0.020717058330774307
1685710164790501600,8.356501708984375,0.0007679448463022709,0.012897983193397522,0.01736602559685707
1685710164810443800,8.37644384765625,0.005148721393197775,-0.0029845130629837513,0.0038746309000998735
1685710164830461200,8.396461181640625,0.011484266258776188,-0.009721484035253525,-0.008639379404485226
1685710164850443800,8.41644384765625,0.009023352526128292,-0.00043633230961859226,-0.004974188283085823
1685710164870443800,8.43644384765625,0.0021642083302140236,0.004607669077813625,0.0008552113431505859
1685710164890443800,8.45644384765625,-0.014049900695681572,0.007958701811730862,0.008447393774986267
1685710164910443800,8.47644384765625,-0.03331833705306053,0.01825614459812641,0.0200189258903265
1685710164930443800,8.49644384765625,-0.027576202526688576,0.023369958624243736,0.01710422709584236
1685710164950443800,8.51644384765625,-0.017523106187582016,0.01251401100307703,0.010245082899928093
1685710164970443800,8.53644384765625,-0.010943214409053326,0.004345869645476341,-0.001483529806137085
1685710164990443800,8.55644384765625,-0.00024434609804302454,-0.0012217304902151227,0.01171115878969431
1685710165010443800,8.57644384765625,0.0071907564997673035,-0.0008028514566831291,0.02165953628718853
1685710165030443800,8.59644384765625,0.009040805511176586,-0.0071907564997673035,0.02188642881810665
1685710165050445600,8.616445556640626,0.007731808349490166,-0.011938052251935005,0.016598081216216087
1685710165070443800,8.63644384765625,0.009180432185530663,-0.009861109778285027,0.008011061698198318
1685710165090443800,8.65644384765625,0.0024958208668977022,-0.005375613924115896,-0.01129228062927723
1685710165110443800,8.67644384765625,-0.004782202187925577,-0.011798425577580929,-0.030595621094107628
1685710165130443800,8.69644384765625,-0.020891591906547546,-0.011763518676161766,-0.017069319263100624
1685710165150443800,8.71644384765625,-0.015568336471915245,0.00040142572834156454,-0.0025656339712440968
1685710165170443800,8.73644384765625,-0.007417649496346712,-0.0006806784076616168,0.0019373154500499368
1685710165190443800,8.75644384765625,-0.0009075712296180427,-0.004206243436783552,0.013543754816055298
1685710165210443800,8.77644384765625,0.015585790388286114,-0.0017278759041801095,0.006963863503187895
1685710165230443800,8.79644384765625,0.028117254376411438,-0.007382742594927549,-0.0022165682166814804
1685710165250443800,8.81644384765625,0.029653143137693405,-0.0119555052369833,-0.005742133129388094
1685710165270443800,8.83644384765625,0.02617993950843811,-0.001483529806137085,-0.005096361506730318
1685710165290443800,8.85644384765625,0.015149458311498165,0.004380776546895504,0.005358160939067602
1685710165310443800,8.87644384765625,0.0002617993741296232,0.007592182140797377,0.024644048884510994
1685710165330443800,8.89644384765625,0.001745329238474369,0.013665927574038506,0.017470745369791985
1685710165350443800,8.91644384765625,0.0014137167017906904,0.015271631069481373,-0.003543018363416195
1685710165370443800,8.93644384765625,-0.002949606394395232,0.008464846760034561,-0.017662731930613518
1685710165390443800,8.95644384765625,0.002460914198309183,-0.0038222710136324167,-0.013857914134860039
1685710165410443800,8.97644384765625,0.0008726646192371845,0.002146754879504442,0.012007865123450756
1685710165430443800,8.99644384765625,0.006195918656885624,0.010768681764602661,0.015585790388286114
1685710165450443800,9.01644384765625,0.01970476657152176,-0.0014486232539638877,-0.02347467839717865
1685710165470443800,9.03644384765625,0.010786134749650955,-0.021589722484350204,-0.023003440350294113
1685710165490443800,9.05644384765625,-0.0008377580670639873,-0.00027925267932005227,0.0034208453726023436
1685710165510443800,9.07644384765625,-0.009738937020301819,0.009861109778285027,0.005078908056020737
1685710165530459600,9.096459716796875,-0.007470009382814169,-0.004782202187925577,0.0009773843921720982
1685710165550443800,9.11644384765625,0.0032114058267325163,-0.009616764262318611,-0.024015730246901512
1685710165570468900,9.13646875,0.015289084054529667,-0.01242674421519041,-0.03595378249883652
1685710165590443800,9.15644384765625,0.013473941944539547,-0.0073303827084600925,-0.014992378652095795
1685710165610443800,9.17644384765625,0.0023387412074953318,0.003577925032004714,0.024329889565706253
1685710165630443800,9.19644384765625,-0.01096066739410162,0.013613567687571049,0.05276130139827728
1685710165650443800,9.21644384765625,-0.009616764262318611,0.010262535884976387,0.05824163556098938
1685710165670443800,9.23644384765625,0.016929693520069122,-0.0013089969288557768,0.028413960710167885
1685710165690443800,9.25644384765625,0.029600784182548523,-0.010681414976716042,-0.007260569836944342
1685710165710443800,9.27644384765625,0.019547687843441963,-0.0119555052369833,-0.020699605345726013
1685710165730443800,9.29644384765625,0.010349802672863007,0.00024434609804302454,-0.01335176918655634
1685710165750443800,9.31644384765625,0.0018500490114092827,0.003525565145537257,-0.007400196045637131
1685710165770445600,9.336445556640625,-0.007888888008892536,0.004014257341623306,0.00003490658491500653
1685710165790443800,9.35644384765625,-0.005044001620262861,0.015044738538563251,0.00251327408477664
1685710165810443800,9.37644384765625,-0.00031415926059708,0.010908307507634163,0.00019198621157556772
1685710165830443800,9.39644384765625,-0.005375613924115896,0.011938052251935005,0.007295476272702217
1685710165850443800,9.41644384765625,-0.01061160210520029,0.022113321349024773,0.011082841083407402
1685710165870443800,9.43644384765625,-0.00890117883682251,0.016772614791989326,0.011554080061614513
1685710165890443800,9.45644384765625,0.0037000980228185654,-0.00031415926059708,0.0003665191470645368
1685710165910443800,9.47644384765625,0.028902651742100716,-0.01218239776790142,-0.027960173785686493
1685710165930443800,9.49644384765625,0.047595128417015076,-0.014468779787421227,-0.03164282068610191
1685710165950443800,9.51644384765625,0.039095375686883926,-0.00041887903353199363,-0.01242674421519041
1685710165970443800,9.53644384765625,0.008569566532969475,-0.008272860199213028,0.002199114765971899
1685710165990443800,9.55644384765625,-0.01785471849143505,0.00017453292093705386,0.023945916444063187
1685710166010443800,9.57644384765625,-0.0286583062261343,0.020629791542887688,0.05604252219200134
1685710166030443800,9.59644384765625,-0.025673793628811836,0.018727382645010948,0.044715333729982376
1685710166050443800,9.61644384765625,-0.013892821036279202,-0.016859879717230797,0.007347836159169674
1685710166070443800,9.63644384765625,0.009442231617867947,-0.018971728160977364,-0.02413790300488472
1685710166090443800,9.65644384765625,0.020786872133612633,-0.007120943162590265,-0.043022364377975464
1685710166110443800,9.67644384765625,0.015515976585447788,-0.02307325229048729,-0.041608650237321854
1685710166130443800,9.69644384765625,0.0013089969288557768,-0.028867745772004128,-0.00890117883682251
1685710166150443800,9.71644384765625,-0.0060388389974832535,0.004014257341623306,0.02502802200615406
1685710166170443800,9.73644384765625,-0.0021816615480929613,0.00041887903353199363,0.0319744311273098
1685710166190443800,9.75644384765625,0.0032114058267325163,-0.019425515085458755,0.0050090947188436985
1685710166210443800,9.77644384765625,0.0075747291557490826,-0.02480112947523594,-0.010646508075296879
1685710166230459600,9.796459716796875,-0.0008901178953237832,-0.012479104101657867,-0.0022165682166814804
1685710166250443800,9.81644384765625,-0.016283921897411346,-0.006352998316287994,0.014521139673888683
1685710166270443800,9.83644384765625,-0.01944296807050705,-0.013753194361925125,0.03082251362502575
1685710166290443800,9.85644384765625,-0.00012217304902151227,-0.010663961991667747,0.027576202526688576
1685710166310443800,9.87644384765625,0.018797196447849274,-0.015795229002833366,-0.000715585018042475
1685710166330443800,9.89644384765625,0.029129544273018837,-0.03396410867571831,-0.015376350842416286
1685710166350443800,9.91644384765625,0.02045525796711445,-0.031782444566488266,-0.006073745898902416
1685710166370443800,9.93644384765625,-0.008220500312745571,-0.0009075712296180427,0.02050761878490448
1685710166390443800,9.95644384765625,-0.020472712814807892,0.006300638429820538,0.020839231088757515
1685710166410443800,9.97644384765625,-0.007557275705039501,-0.017435839399695396,0.004450589418411255
1685710166430443800,9.99644384765625,0.0035953782498836517,-0.017470745369791985,-0.0008028514566831291
1685710166450443800,10.01644384765625,0.006073745898902416,-0.00143117003608495,0.008115780539810658
1685710166470443800,10.03644384765625,0.0005061454721726477,-0.009424777701497078,0.020053833723068237
1685710166490443800,10.05644384765625,-0.007522369269281626,-0.011850785464048386,0.03190461918711662
1685710166510443800,10.07644384765625,-0.004904375411570072,0.002373647876083851,0.03064798191189766
1685710166530443800,10.09644384765625,-0.0015358896926045418,0.00062831852119416,0.011431906372308731
1685710166550443800,10.11644384765625,-0.004450589418411255,-0.014398965984582901,0.004939281847327948
1685710166570468900,10.13646875,-0.008412486873567104,-0.004049163777381182,0.003089232835918665
1685710166590443800,10.15644384765625,-0.010506882332265377,0.007487462367862463,0.007120943162590265
1685710166610443800,10.17644384765625,-0.010594148188829422,0.0037350046914070845,0.01377064734697342
1685710166630443800,10.19644384765625,-0.004642575979232788,-0.00040142572834156454,0.018936822190880775
1685710166650443800,10.21644384765625,0.00125663704238832,0.00678933085873723,0.014852751977741718
1685710166670443800,10.23644384765625,0.010000736452639103,0.009110618382692337,0.013247049413621426
1685710166690443800,10.25644384765625,0.026563910767436028,0.007592182140797377,-0.0044156829826533794
1685710166710443800,10.27644384765625,0.043598324060440063,-0.0044156829826533794,-0.021729348227381706
1685710166730443800,10.29644384765625,0.04279547184705734,-0.000715585018042475,-0.030613074079155922
1685710166750443800,10.31644384765625,0.028902651742100716,0.018221236765384674,-0.026686083525419235
1685710166770443800,10.33644384765625,0.004660028964281082,0.017208946868777275,-0.006510077975690365
1685710166790443800,10.35644384765625,-0.017348572611808777,0.031782444566488266,0.03176499158143997
1685710166810443800,10.37644384765625,-0.012444197200238705,0.05106833204627037,0.04401720315217972
1685710166830443800,10.39644384765625,0.009494591504335403,0.035988688468933105,0.024748768657445908
1685710166850443800,10.41644384765625,0.03560471534729004,0.00945968460291624,-0.0031939526088535786
1685710166870443800,10.43644384765625,0.045204028487205505,0.005305801052600145,-0.06520549952983856
1685710166890443800,10.45644384765625,0.062116269022226334,0.009512044489383698,-0.010768681764602661
1685710166910443800,10.47644384765625,0.04567526653409004,0.028326693922281265,-0.01129228062927723
1685710166930459600,10.496459716796876,0.03354522958397865,0.01740093342959881,-0.03741985931992531
1685710166950443800,10.51644384765625,0.005218534264713526,0.00012217304902151227,-0.02453932911157608
1685710166970443800,10.53644384765625,-0.02316051907837391,0.03361504152417183,0.0011519172694534063
1685710166990443800,10.55644384765625,-0.036966074258089066,0.043022364377975464,0.025586526840925217
1685710167010443800,10.57644384765625,-0.022602014243602753,0.01638864167034626,0.02024581842124462
1685710167030445600,10.596445556640624,0.005777040030807257,0.0025307273026555777,-0.0011519172694534063
1685710167050443800,10.61644384765625,0.02551671303808689,0.002740166848525405,-0.009930923581123352
1685710167070443800,10.63644384765625,0.025167647749185562,0.0034382985904812813,0.010838494636118412
1685710167090443800,10.65644384765625,0.003909537568688393,0.0021118484437465668,0.03406882658600807
1685710167110443800,10.67644384765625,-0.014346606098115444,0.020123645663261414,0.060301125049591064
1685710167130443800,10.69644384765625,-0.017296213656663895,0.019163714721798897,0.055257122963666916
1685710167150443800,10.71644384765625,-0.010314895771443844,0.005550147034227848,0.016755159944295883
1685710167170443800,10.73644384765625,-0.011990412138402462,-0.0036651913542300463,-0.022776545956730843
1685710167190443800,10.75644384765625,-0.019233528524637222,-0.0009075712296180427,-0.032096605747938156
1685710167210443800,10.77644384765625,-0.022794000804424286,0.006422811653465033,-0.024870941415429115
1685710167230443800,10.79644384765625,-0.02237512171268463,0.008220500312745571,-0.011885692365467548
1685710167250443800,10.81644384765625,-0.0224623866379261,-0.00020943951676599681,0.004660028964281082
1685710167270443800,10.83644384765625,-0.008726646192371845,0.000715585018042475,0.009738937020301819
1685710167290443800,10.85644384765625,0.0051312679424881935,-0.0005585053586401045,0.0006457717972807586
1685710167310443800,10.87644384765625,0.0073129297234117985,-0.006684611085802317,-0.013508847914636135
1685710167330443800,10.89644384765625,-0.005689773242920637,-0.005462880712002516,-0.021101031452417374
1685710167350443800,10.91644384765625,-0.02436479553580284,0.0036651913542300463,-0.004363323096185923
1685710167370443800,10.93644384765625,-0.033999014645814896,0.01251401100307703,0.009878563694655895
1685710167390443800,10.95644384765625,-0.03497639670968056,0.0016755161341279745,0.008464846760034561
1685710167410443800,10.97644384765625,-0.02741912193596363,-0.006562437862157822,0.01401499379426241
1685710167430443800,10.99644384765625,-0.0119555052369833,0.0004886921960860491,0.030595621094107628
1685710167450443800,11.01644384765625,0.0005934119690209627,-0.0013613568153232336,0.0262148454785347
1685710167470443800,11.03644384765625,0.00874409917742014,-0.012583823874592781,0.01129228062927723
1685710167490443800,11.05644384765625,0.0071907564997673035,-0.01171115878969431,-0.005340707488358021
1685710167510443800,11.07644384765625,-0.0024085543118417263,-0.008168140426278114,-0.0073129297234117985
1685710167530443800,11.09644384765625,-0.023439772427082062,0.0024958208668977022,-0.0005585053586401045
1685710167550443800,11.11644384765625,-0.0313984714448452,0.015742870047688484,0.002234021434560418
1685710167570472000,11.136471923828125,-0.02963569015264511,0.0007504915702156723,-0.012845623306930065
1685710167590443800,11.15644384765625,-0.015568336471915245,-0.009791296906769276,-0.011833332479000092
1685710167610443800,11.17644384765625,-0.008115780539810658,-0.004136430099606514,0.008761553093791008
1685710167630459600,11.196459716796875,-0.010978121310472488,0.0013962633674964309,0.03260274976491928
1685710167650443800,11.21644384765625,-0.0019373154500499368,-0.008028514683246613,0.036075957119464874
1685710167670443800,11.23644384765625,0.00017453292093705386,-0.016632987186312675,0.031555552035570145
1685710167690443800,11.25644384765625,-0.013037609867751598,-0.014992378652095795,0.025324726477265358
1685710167710443800,11.27644384765625,-0.03488913178443909,0.0013264502631500363,0.032183870673179626
1685710167730443800,11.29644384765625,-0.04796164855360985,-0.003752457909286022,0.024015730246901512
1685710167750445600,11.316445556640625,-0.0383099764585495,-0.013683381490409374,0.002914699725806713
1685710167770443800,11.33644384765625,-0.019739674404263496,-0.021275563165545464,-0.01679006777703762
1685710167790443800,11.35644384765625,-0.007487462367862463,-0.025987952947616577,-0.027000242844223976
1685710167810445600,11.376445556640626,-0.010349802672863007,-0.020664697512984276,-0.003543018363416195
1685710167830443800,11.39644384765625,-0.028989918529987335,-0.0027052604127675295,0.04427900165319443
1685710167850443800,11.41644384765625,-0.03241076320409775,0.005846852902323008,0.05721189081668854
1685710167870443800,11.43644384765625,0.006126105785369873,-0.00013962633966002613,0.036791540682315826
1685710167890443800,11.45644384765625,0.0031415927223861217,-0.005689773242920637,0.01630137488245964
1685710167910443800,11.47644384765625,-0.003577925032004714,-0.018901916220784187,0.004625122528523207
1685710167930443800,11.49644384765625,0.020926497876644135,-0.02263692021369934,-0.011850785464048386
1685710167950443800,11.51644384765625,0.02909463830292225,-0.011100294068455696,-0.0011693706037476659
1685710167970443800,11.53644384765625,0.023143066093325615,-0.009477137587964535,-0.0019024088978767395
1685710167990443800,11.55644384765625,0.024085544049739838,-0.015533430501818657,0.0019547687843441963
1685710168010443800,11.57644384765625,0.03317870944738388,0.003298672381788492,-0.03694862127304077
1685710168030443800,11.59644384765625,0.0159872155636549,-0.002775073517113924,-0.04525638744235039
1685710168050443800,11.61644384765625,-0.009529497474431992,-0.0017104226863011718,-0.014905111864209175
1685710168070445600,11.636445556640625,-0.020577432587742805,0.01961750164628029,0.01722639985382557
1685710168090445600,11.656445556640625,-0.017069319263100624,0.022218041121959686,0.04098033159971237
1685710168110445600,11.676445556640624,0.0013788101496174932,0.011484266258776188,0.04548327997326851
1685710168130443800,11.69644384765625,0.04904375225305557,0.0023038345389068127,0.0011868239380419254
1685710168150443800,11.71644384765625,0.07005751878023148,-0.008866272866725922,-0.05705481395125389
1685710168170443800,11.73644384765625,0.04651302471756935,-0.015917403623461723,-0.057421330362558365
1685710168190443800,11.75644384765625,0.005951572675257921,0.01333431527018547,-0.019303342327475548
1685710168210443800,11.77644384765625,-0.018413223326206207,0.02843141369521618,0.020350538194179535
1685710168230443800,11.79644384765625,-0.027227135375142097,0.032707471400499344,0.04677482321858406
1685710168250443800,11.81644384765625,-0.012234757654368877,0.01993165910243988,0.04715879634022713
1685710168270443800,11.83644384765625,0.026459190994501114,0.010506882332265377,0.02750638872385025
1685710168290443800,11.85644384765625,0.04804891347885132,0.009738937020301819,-0.00040142572834156454
1685710168310443800,11.87644384765625,0.059376101940870285,0.001745329238474369,-0.03893829509615898
1685710168330459600,11.896459716796874,0.04403465613722801,-0.0009250245057046413,-0.04899139329791069
1685710168350443800,11.91644384765625,0.00376991112716496,0.014224433340132236,-0.019652407616376877
1685710168370443800,11.93644384765625,-0.017732545733451843,0.03537782281637192,0.025132741779088974
1685710168390443800,11.95644384765625,-0.008045967668294907,0.03892084211111069,0.04145156964659691
1685710168410443800,11.97644384765625,-0.004293509759008884,0.02649409882724285,0.041294489055871964
1685710168430443800,11.99644384765625,0.0037350046914070845,0.009930923581123352,0.023282691836357117
1685710168450443800,12.01644384765625,0.030194196850061417,0.014695672318339348,0.0228987205773592
1685710168470443800,12.03644384765625,0.03817034885287285,0.0023038345389068127,0.018709929659962654
1685710168490443800,12.05644384765625,0.03358013555407524,-0.004188789986073971,-0.0063355453312397
1685710168510443800,12.07644384765625,0.008709193207323551,-0.010419615544378757,-0.02272418700158596
1685710168530443800,12.09644384765625,-0.021991148591041565,0.0011344640515744686,-0.0055850534699857235
1685710168550443800,12.11644384765625,-0.049933869391679764,0.014835298992693424,0.034348078072071075
1685710168570468900,12.13646875,-0.0547335259616375,0.031241392716765404,0.05637413635849953
1685710168590443800,12.15644384765625,-0.03768165782094002,0.014678219333291054,0.05176646634936333
1685710168610443800,12.17644384765625,-0.016196655109524727,-0.01754055917263031,0.029112091287970543
1685710168630443800,12.19644384765625,0.0012391837080940604,-0.02028072625398636,-0.0045378562062978745
1685710168650443800,12.21644384765625,0.005969026125967503,-0.01851794309914112,-0.007679448463022709
1685710168670443800,12.23644384765625,0.011431906372308731,-0.019250981509685516,-0.009616764262318611
1685710168690443800,12.25644384765625,0.011938052251935005,-0.017243852838873863,-0.004485496319830418
1685710168710443800,12.27644384765625,0.00930260494351387,-0.013997540809214115,0.0011693706037476659
1685710168730443800,12.29644384765625,0.0071907564997673035,0.001483529806137085,0.01226966455578804
1685710168750443800,12.31644384765625,-0.00031415926059708,0.00518362782895565,0.017208946868777275
1685710168770443800,12.33644384765625,0.001518436474725604,-0.018814649432897568,0.00938987173140049
1685710168790443800,12.35644384765625,0.012601276859641075,-0.02342231757938862,-0.018064158037304878
1685710168810443800,12.37644384765625,0.008953538723289967,-0.02471386268734932,-0.029862582683563232
1685710168830443800,12.39644384765625,-0.0015882495790719986,-0.03122393973171711,-0.01745329238474369
1685710168850445600,12.416445556640625,-0.017819812521338463,-0.014538592658936977,0.010506882332265377
1685710168870443800,12.43644384765625,-0.024382250383496284,0.00038397242315113544,0.030368728563189507
1685710168890443800,12.45644384765625,-0.020490165799856186,-0.006475171539932489,0.045238934457302094
1685710168910443800,12.47644384765625,-0.0027576202992349863,-0.01736602559685707,0.046355944126844406
1685710168930443800,12.49644384765625,0.020176006481051445,-0.01837831735610962,0.015690509229898453
1685710168950443800,12.51644384765625,0.031014500185847282,-0.0269304309040308,-0.013281955383718014
1685710168970443800,12.53644384765625,0.023108160123229027,-0.037227872759103775,-0.02684316411614418
1685710168990443800,12.55644384765625,0.006405358202755451,-0.022252947092056274,-0.02028072625398636
1685710169010443800,12.57644384765625,-0.005235987715423107,0.00753982225432992,-0.020472712814807892
1685710169030459600,12.596459716796875,-0.01523672416806221,-0.005375613924115896,-0.032620202749967575
1685710169050443800,12.61644384765625,-0.014905111864209175,-0.019460421055555344,-0.01080358773469925
1685710169070443800,12.63644384765625,-0.013404129073023796,0.002199114765971899,0.020629791542887688
1685710169090443800,12.65644384765625,-0.010105456225574017,0.0066147977486252785,0.03354522958397865
1685710169110443800,12.67644384765625,0.02007128670811653,-0.01211258489638567,0.006824237294495106
1685710169130443800,12.69644384765625,0.045779984444379807,-0.025813419371843338,-0.02457423508167267
1685710169150443800,12.71644384765625,0.02905973233282566,-0.019826939329504967,-0.021781709045171738
1685710169170443800,12.73644384765625,-0.000715585018042475,0.0007504915702156723,0.023596851155161858
1685710169190443800,12.75644384765625,-0.01532399095594883,0.011327186599373817,0.04872959107160568
1685710169210443800,12.77644384765625,-0.004590216092765331,-0.0018151424592360854,0.034697145223617554
1685710169230443800,12.79644384765625,0.011379546485841274,-0.01953023485839367,0.012828170321881771
1685710169250443800,12.81644384765625,0.022305307909846306,-0.008604473434388638,-0.0013962633674964309
1685710169270443800,12.83644384765625,0.012496557086706161,-0.006806783843785524,0.00427605677396059
1685710169290443800,12.85644384765625,-0.013386675156652927,-0.003351032268255949,0.03125884756445885
1685710169310443800,12.87644384765625,-0.02125811018049717,0.017470745369791985,0.043249256908893585
1685710169330443800,12.89644384765625,0.0007679448463022709,0.014451325871050358,0.013857914134860039
1685710169350443800,12.91644384765625,0.014625859446823597,-0.01621410809457302,-0.020228365436196327
1685710169370443800,12.93644384765625,0.016720253974199295,-0.007661995477974415,-0.027576202526688576
1685710169390443800,12.95644384765625,0.01061160210520029,0.007225662935525179,-0.007347836159169674
1685710169410443800,12.97644384765625,-0.0033335788175463676,0.00890117883682251,0.017069319263100624
1685710169430443800,12.99644384765625,-0.0024085543118417263,0.012636183761060238,0.011746065691113472
1685710169450443800,13.01644384765625,0.01621410809457302,0.007033676840364933,0.007260569836944342
1685710169470443800,13.03644384765625,0.02445206232368946,0.0021118484437465668,0.009669124148786068
1685710169490443800,13.05644384765625,0.02661627158522606,0.011257373727858067,0.0031939526088535786
1685710169510443800,13.07644384765625,0.024993114173412323,0.01160643994808197,-0.005323254037648439
1685710169530443800,13.09644384765625,0.017243852838873863,0.00047123889089562,-0.011501720175147057
1685710169550443800,13.11644384765625,0.009162978269159794,0.0013613568153232336,-0.01251401100307703
1685710169570473500,13.136473388671876,0.0041015236638486385,0.015690509229898453,-0.003089232835918665
1685710169590445600,13.156445556640625,0.0026354470755904913,0.014835298992693424,-0.0017976891249418259
1685710169610443800,13.17644384765625,-0.004660028964281082,0.0032463124953210354,0.010227628983557224
1685710169630443800,13.19644384765625,-0.009110618382692337,0.007819075137376785,0.040683623403310776
1685710169650443800,13.21644384765625,-0.007278022821992636,0.00855211354792118,0.004502949304878712
1685710169670443800,13.23644384765625,0.02670353837311268,0.007365289609879255,0.02321287989616394
1685710169690443800,13.25644384765625,0.03476695716381073,-0.006719517521560192,-0.01673770695924759
1685710169710443800,13.27644384765625,0.03171263262629509,0.010088003240525723,-0.0443488173186779
1685710169730459600,13.296459716796875,0.01211258489638567,0.012287117540836334,-0.044052109122276306
1685710169750443800,13.31644384765625,-0.00040142572834156454,0.01788962446153164,-0.05066690966486931
1685710169770443800,13.33644384765625,-0.00808087456971407,0.017435839399695396,-0.036861352622509
1685710169790443800,13.35644384765625,-0.0061610122211277485,0.00921533815562725,-0.00041887903353199363
1685710169810443800,13.37644384765625,0.00724311638623476,0.013491394929587841,0.028064893558621407
1685710169830443800,13.39644384765625,0.021101031452417374,0.01682497374713421,0.014643312431871891
1685710169850443800,13.41644384765625,0.025813419371843338,-0.0028797932900488377,-0.0009948377264663577
1685710169870445600,13.436445556640624,0.013229595497250557,-0.006824237294495106,0.0015009831404313445
1685710169890445600,13.456445556640626,-0.0073303827084600925,0.01935570128262043,0.014067353680729866
1685710169910445600,13.476445556640625,-0.025394540280103683,0.025987952947616577,0.024818582460284233
1685710169930443800,13.49644384765625,-0.02165953628718853,0.009040805511176586,0.011065387167036533
1685710169950443800,13.51644384765625,-0.006143558770418167,-0.0017104226863011718,-0.009686577133834362
1685710169970443800,13.53644384765625,0.0012042771559208632,0.002460914198309183,-0.01310742273926735
1685710169990443800,13.55644384765625,0.00331612559966743,0.005811946466565132,-0.008220500312745571
1685710170010443800,13.57644384765625,-0.006213372107595205,0.00427605677396059,0.004694935865700245
1685710170030443800,13.59644384765625,-0.02387610450387001,0.01160643994808197,0.03445279970765114
1685710170050445600,13.616445556640626,-0.030682887881994247,0.02640683203935623,0.03675663471221924
1685710170070443800,13.63644384765625,-0.018448129296302795,0.01012290921062231,0.014364060014486313
1685710170090443800,13.65644384765625,-0.014364060014486313,-0.0019024088978767395,-0.01012290921062231
1685710170110443800,13.67644384765625,-0.019547687843441963,0.006248278543353081,-0.01417207345366478
1685710170130443800,13.69644384765625,-0.019652407616376877,0.005166174378246069,0.003944444004446268
1685710170150443800,13.71644384765625,-0.018587756901979446,0.0023387412074953318,0.018744835630059242
1685710170170443800,13.73644384765625,-0.00954695139080286,0.00188495556358248,0.02808234840631485
1685710170190443800,13.75644384765625,0.0009075712296180427,0.0071907564997673035,0.022200588136911392
1685710170210443800,13.77644384765625,0.00038397242315113544,-0.004747295752167702,-0.0023038345389068127
1685710170230443800,13.79644384765625,-0.010245082899928093,-0.012391837313771248,0.0005061454721726477
1685710170250443800,13.81644384765625,-0.02954842336475849,0.014503685757517815,0.008499753661453724
1685710170270443800,13.83644384765625,-0.031031953170895576,0.016580628231167793,-0.0041015236638486385
1685710170290443800,13.85644384765625,-0.02445206232368946,-0.006649704650044441,-0.01926843449473381
1685710170310443800,13.87644384765625,-0.010489428415894508,-0.010873401537537575,-0.03162536770105362
1685710170330443800,13.89644384765625,0.0025830871891230345,0.0019198621157556772,-0.03415609151124954
1685710170350443800,13.91644384765625,-0.0002617993741296232,0.000052359879191499203,-0.017505653202533722
1685710170370443800,13.93644384765625,-0.009581857360899448,-0.007347836159169674,0.00593411922454834
1685710170390443800,13.95644384765625,-0.012845623306930065,0.001518436474725604,0.02640683203935623
1685710170410443800,13.97644384765625,-0.016458455473184586,0.006579891312867403,0.04708898440003395
1685710170430461200,13.996461181640624,-0.02546435408294201,0.006126105785369873,0.056461401283741
1685710170450443800,14.01644384765625,-0.02321287989616394,0.021362829953432083,0.05103342607617378
1685710170470443800,14.03644384765625,-0.014154620468616486,0.01235693134367466,0.025272367522120476
1685710170490443800,14.05644384765625,0.005532693583518267,-0.011082841083407402,-0.012740903533995152
1685710170510443800,14.07644384765625,0.017121680080890656,-0.013316862285137177,-0.03274237737059593
1685710170530443800,14.09644384765625,0.015254177153110504,-0.005201081279665232,-0.03867649659514427
1685710170550443800,14.11644384765625,0.01975712738931179,-0.0077841682359576225,-0.056670840829610825
1685710170570468900,14.13646875,0.020088739693164825,-0.01563815027475357,-0.06298892945051193
1685710170590443800,14.15644384765625,-0.010506882332265377,0,-0.03410373255610466
1685710170610443800,14.17644384765625,-0.05176646634936333,0.013142329640686512,0.012967796064913273
1685710170630443800,14.19644384765625,-0.0651007816195488,0.03134611248970032,0.06181956082582474
1685710170650443800,14.21644384765625,-0.033196162432432175,0.020891591906547546,0.059952057898044586
1685710170670443800,14.23644384765625,0.019565140828490257,-0.014748032204806805,0.01673770695924759
1685710170690443800,14.25644384765625,0.052290063351392746,-0.029705503955483437,-0.01581268385052681
1685710170710443800,14.27644384765625,0.05201081186532974,-0.018011797219514847,-0.02316051907837391
1685710170730443800,14.29644384765625,0.021467549726366997,-0.016580628231167793,-0.005044001620262861
1685710170750443800,14.31644384765625,-0.016772614791989326,0.004782202187925577,0.02600540593266487
1685710170770443800,14.33644384765625,-0.03358013555407524,0.020839231088757515,0.0230383463203907
1685710170790443800,14.35644384765625,-0.033370696008205414,0.005201081279665232,0.0021642083302140236
1685710170810443800,14.37644384765625,-0.032393310219049454,0.000017453292457503267,-0.007801621686667204
1685710170830443800,14.39644384765625,-0.017907077446579933,0.009669124148786068,-0.0159872155636549
1685710170850443800,14.41644384765625,-0.0022689281031489372,0.0011519172694534063,-0.0239110104739666
1685710170870443800,14.43644384765625,0.004171337001025677,-0.014521139673888683,-0.008691739290952682
1685710170890443800,14.45644384765625,0.012496557086706161,-0.005689773242920637,0.002373647876083851
1685710170910443800,14.47644384765625,0.020542524755001068,-0.0037000980228185654,0.0077667152509093285
1685710170930443800,14.49644384765625,0.015428710728883743,-0.0019198621157556772,0.02174680307507515
1685710170950443800,14.51644384765625,0.013543754816055298,0.0008377580670639873,0.014608405530452728
1685710170970443800,14.53644384765625,0.0021642083302140236,-0.002146754879504442,0.0029845130629837513
1685710170990443800,14.55644384765625,-0.004310963209718466,-0.002600540639832616,-0.013508847914636135
1685710171010443800,14.57644384765625,-0.010716321878135204,-0.00708603672683239,-0.026598818600177765
1685710171030443800,14.59644384765625,-0.01424188632518053,-0.0016929693520069122,-0.01029744278639555
1685710171050443800,14.61644384765625,-0.008970992639660835,0.007906341925263405,0.0010471974965184927
1685710171070443800,14.63644384765625,0.0023387412074953318,0.003857177682220936,0.0025307273026555777
1685710171090443800,14.65644384765625,0.01080358773469925,-0.002373647876083851,0.007714355364441872
1685710171110443800,14.67644384765625,0.015865042805671692,0.006963863503187895,0.013142329640686512
1685710171130459600,14.696459716796875,0.01788962446153164,0.016667895019054413,0.0063355453312397
1685710171150445600,14.716445556640625,0.010925761424005032,0.004328416660428047,0.003717551240697503
1685710171170445600,14.736445556640625,0.005270894151180983,0.006824237294495106,0.0011344640515744686
1685710171190445600,14.756445556640625,0.00040142572834156454,0.013683381490409374,0.009721484035253525
1685710171210445600,14.776445556640626,0.009093165397644043,0.008290314115583897,0.012444197200238705
1685710171230443800,14.79644384765625,0.02050761878490448,0.006195918656885624,0.0012740903766825795
1685710171250443800,14.81644384765625,0.02963569015264511,0.006108652334660292,-0.01771509274840355
1685710171270443800,14.83644384765625,0.03326597437262535,0.0014137167017906904,-0.041608650237321854
1685710171290443800,14.85644384765625,0.026424285024404526,-0.004642575979232788,-0.04269075393676758
1685710171310443800,14.87644384765625,-0.0022689281031489372,0.0028448866214603186,-0.008115780539810658
1685710171330443800,14.89644384765625,-0.016702800989151,0.013194689527153969,0.023509584367275238
1685710171350443800,14.91644384765625,-0.0076445420272648335,0.007016223389655352,0.026337018236517906
1685710171370443800,14.93644384765625,0.011885692365467548,-0.009581857360899448,0.012845623306930065
1685710171390443800,14.95644384765625,0.0313984714448452,-0.009354964829981327,-0.00970403105020523
1685710171410443800,14.97644384765625,0.033196162432432175,-0.013281955383718014,-0.018413223326206207
1685710171430443800,14.99644384765625,0.019233528524637222,-0.013299409300088882,-0.014538592658936977
1685710171450443800,15.01644384765625,-0.005672320257872343,0.0024434609804302454,0.011152653954923153
1685710171470443800,15.03644384765625,-0.02214822731912136,0.012409291230142117,0.03754203021526337
1685710171490443800,15.05644384765625,-0.011170106939971447,0.008848818950355053,0.022113321349024773
1685710171510443800,15.07644384765625,0.009738937020301819,-0.008674286305904388,-0.00457276264205575
1685710171530443800,15.09644384765625,0.02497566118836403,-0.010716321878135204,-0.02494075521826744
1685710171550443800,15.11644384765625,0.02687807008624077,-0.008429939858615398,-0.022340213879942894
1685710171570472000,15.136471923828125,0.01727875880897045,-0.00823795422911644,0.0013264502631500363
1685710171590443800,15.15644384765625,-0.00013962633966002613,0.00038397242315113544,0.027785642072558403
1685710171610443800,15.17644384765625,-0.008517206646502018,0.008883725851774216,0.030857421457767487
1685710171630443800,15.19644384765625,-0.006667157635092735,0.002234021434560418,0.023369958624243736
1685710171650443800,15.21644384765625,0.0011693706037476659,-0.003630284918472171,0.003490658476948738
1685710171670445600,15.236445556640625,0.004712388850748539,-0.005305801052600145,-0.013840461149811745
1685710171690443800,15.25644384765625,-0.0008028514566831291,-0.006841690745204687,-0.013683381490409374
1685710171710443800,15.27644384765625,-0.008813912980258465,-0.0026529005263000727,-0.005288347601890564
1685710171730443800,15.29644384765625,-0.012339477427303791,-0.00006981316983001307,-0.0005759586347267032
1685710171750445600,15.316445556640625,-0.02148500271141529,-0.007103490177541971,0.0038920841179788113
1685710171770443800,15.33644384765625,-0.01855284906923771,-0.004852015525102615,0.01507964450865984
1685710171790443800,15.35644384765625,-0.0051312679424881935,0.003351032268255949,0.018325956538319588
1685710171810443800,15.37644384765625,0.003752457909286022,-0.0041015236638486385,0.005113814491778612
1685710171830459600,15.396459716796874,0.013002702966332436,-0.015533430501818657,-0.0015707963611930609
1685710171850443800,15.41644384765625,0.015411256812512875,-0.010035643354058266,-0.003508111694827676
1685710171870443800,15.43644384765625,0.0077841682359576225,-0.0016231562476605177,-0.0052534411661326885
1685710171890443800,15.45644384765625,-0.0027052604127675295,0.00041887903353199363,-0.003926991019397974
1685710171910443800,15.47644384765625,-0.009983283467590809,0.0019896754529327154,0.0012042771559208632
1685710171930443800,15.49644384765625,-0.00799360778182745,0.005794493015855551,0.00938987173140049
1685710171950443800,15.51644384765625,-0.0037350046914070845,-0.00548033369705081,0.024958208203315735
1685710171970443800,15.53644384765625,0.003298672381788492,0.001972222002223134,0.011536626145243645
1685710171990443800,15.55644384765625,0.01607448235154152,-0.0024958208668977022,-0.012060225009918213
1685710172010443800,15.57644384765625,0.019233528524637222,-0.023090705275535583,-0.017592918127775192
1685710172030443800,15.59644384765625,0.004136430099606514,-0.001745329238474369,-0.02542944625020027
1685710172050443800,15.61644384765625,-0.021205751225352287,0.007400196045637131,0.0021642083302140236
1685710172070443800,15.63644384765625,-0.020961403846740723,0.0031241392716765404,0.025185100734233856
1685710172090443800,15.65644384765625,0.0005759586347267032,0.006719517521560192,0.008360126987099648
1685710172110443800,15.67644384765625,0.021048670634627342,-0.006021386012434959,-0.008639379404485226
1685710172130443800,15.69644384765625,0.023753931745886803,-0.0067369709722697735,-0.018814649432897568
1685710172150443800,15.71644384765625,0.014364060014486313,0.010733774863183498,-0.004328416660428047
1685710172170443800,15.73644384765625,-0.015428710728883743,0.017505653202533722,0.040369465947151184
1685710172190443800,15.75644384765625,-0.03192207217216492,0.027925267815589905,0.05061454698443413
1685710172210443800,15.77644384765625,-0.014398965984582901,0.016266468912363052,0.027838001027703285
1685710172230443800,15.79644384765625,0.006998770404607058,-0.003089232835918665,-0.0012740903766825795
1685710172250443800,15.81644384765625,0.008691739290952682,-0.0016057029133662581,-0.02090904489159584
1685710172270443800,15.83644384765625,0.009023352526128292,0.007557275705039501,-0.008656833320856094
1685710172290443800,15.85644384765625,0.014102260582149029,0.006195918656885624,-0.0005061454721726477
1685710172310443800,15.87644384765625,0.012548916973173618,-0.005532693583518267,0.004433136433362961
1685710172330443800,15.89644384765625,0.020647244527935982,0.001117010717280209,-0.00945968460291624
1685710172350443800,15.91644384765625,0.02076941728591919,0.0041015236638486385,-0.0021118484437465668
1685710172370443800,15.93644384765625,0.003228859044611454,0.008970992639660835,0.006318091880530119
1685710172390443800,15.95644384765625,-0.011833332479000092,0.016580628231167793,0.013596114702522755
1685710172410443800,15.97644384765625,-0.011397000402212143,0.012601276859641075,0.015376350842416286
1685710172430443800,15.99644384765625,-0.0037350046914070845,0.013823007233440876,0.00047123889089562
1685710172450443800,16.01644384765625,0.005532693583518267,0.015062191523611546,-0.017296213656663895
1685710172470443800,16.03644384765625,0.008918632753193378,0.008098327554762363,-0.026371924206614494
1685710172490443800,16.05644384765625,0.004642575979232788,0.003630284918472171,-0.02701769582927227
1685710172510443800,16.07644384765625,-0.003577925032004714,0.010576695203781128,0.004380776546895504
1685710172530459600,16.096459716796875,-0.007853982038795948,0.01837831735610962,0.04354596510529518
1685710172550443800,16.11644384765625,0.00015707963029854,0.02684316411614418,0.0345749706029892
1685710172570468900,16.13646875,0.008412486873567104,0.0016929693520069122,0.022392574697732925
1685710172590443800,16.15644384765625,0.014957471750676632,0.0024260077625513077,-0.00010471975838299841
1685710172610443800,16.17644384765625,0.013055062852799892,0.014398965984582901,-0.02497566118836403
1685710172630443800,16.19644384765625,0.007051130291074514,-0.00012217304902151227,-0.033824481070041656
1685710172650443800,16.21644384765625,0.005497787147760391,-0.010245082899928093,-0.026057764887809753
1685710172670443800,16.23644384765625,-0.008342674002051353,-0.009442231617867947,-0.027052603662014008
1685710172690443800,16.25644384765625,0.003036872949451208,0.02206096239387989,0.0077667152509093285
1685710172710443800,16.27644384765625,-0.0015009831404313445,0.0007504915702156723,0.009686577133834362
1685710172730443800,16.29644384765625,-0.004764748737215996,0.007592182140797377,0.015341443940997124
1685710172750443800,16.31644384765625,-0.009407324716448784,0.017034413293004036,0.02759365551173687
1685710172770443800,16.33644384765625,-0.0154810706153512,0.026651177555322647,0.017994344234466553
1685710172790445600,16.356445556640626,-0.01696459949016571,0.0070685832761228085,0.00839503388851881
1685710172810443800,16.37644384765625,-0.01567305624485016,-0.00013962633966002613,-0.0060388389974832535
1685710172830443800,16.39644384765625,-0.013508847914636135,-0.007016223389655352,-0.008936085738241673
1685710172850443800,16.41644384765625,-0.00799360778182745,0.0008377580670639873,0.014625859446823597
1685710172870443800,16.43644384765625,-0.009983283467590809,0.003543018363416195,0.040020398795604706
1685710172890443800,16.45644384765625,0.00251327408477664,0.0263544712215662,0.009721484035253525
1685710172910443800,16.47644384765625,0.010663961991667747,0.033999014645814896,-0.007382742594927549
1685710172930443800,16.49644384765625,-0.01891936920583248,0.002809980185702443,-0.0165631752461195
1685710172950443800,16.51644384765625,-0.029880037531256676,-0.026860617101192474,-0.03406882658600807
1685710172970443800,16.53644384765625,-0.011327186599373817,0.005270894151180983,-0.02857103943824768
1685710172990443800,16.55644384765625,-0.004886921960860491,0.013823007233440876,0.0020420351065695286
1685710173010443800,16.57644384765625,0,-0.00923279207199812,0.013648474588990211
1685710173030443800,16.59644384765625,0.015446163713932037,-0.01045452244579792,0.01129228062927723
1685710173050445600,16.616445556640624,0.022689281031489372,0.004468042869120836,0.0021118484437465668
1685710173070443800,16.63644384765625,0.010000736452639103,0.0014137167017906904,0.0024085543118417263
1685710173090443800,16.65644384765625,-0.004049163777381182,-0.0003490658418741077,0.0015707963611930609
1685710173110443800,16.67644384765625,-0.014748032204806805,0.013648474588990211,0.0006806784076616168
1685710173130443800,16.69644384765625,-0.015341443940997124,0.0073129297234117985,-0.0044156829826533794
1685710173150443800,16.71644384765625,-0.015289084054529667,-0.004468042869120836,-0.00457276264205575
1685710173170443800,16.73644384765625,-0.003543018363416195,0.004956734832376242,0.007155850064009428
1685710173190443800,16.75644384765625,0.013386675156652927,-0.001745329238474369,0.006859143730252981
1685710173210443800,16.77644384765625,0.017575465142726898,-0.011082841083407402,0.00472984230145812
1685710173230459600,16.796459716796875,0.008342674002051353,-0.0052534411661326885,0.012967796064913273
1685710173250443800,16.81644384765625,0.000052359879191499203,0.003403391921892762,0.01432915311306715
1685710173270443800,16.83644384765625,-0.01242674421519041,0,0.005777040030807257
1685710173290443800,16.85644384765625,-0.014608405530452728,0.00019198621157556772,-0.006981316953897476
1685710173310443800,16.87644384765625,-0.006300638429820538,0.00015707963029854,-0.015847589820623398
1685710173330443800,16.89644384765625,-0.005794493015855551,-0.0015882495790719986,-0.0020769417751580477
1685710173350443800,16.91644384765625,0.0020769417751580477,-0.003351032268255949,0.002460914198309183
1685710173370443800,16.93644384765625,0.007853982038795948,-0.019303342327475548,0.007487462367862463
1685710173390443800,16.95644384765625,0.00609119888395071,-0.009005898609757423,0.018081611022353172
1685710173410443800,16.97644384765625,0.011658798903226852,0.003857177682220936,-0.0005585053586401045
1685710173430443800,16.99644384765625,0.016545720398426056,-0.01984439417719841,-0.019966566935181618
1685710173450443800,17.01644384765625,0.002722713630646467,-0.028413960710167885,-0.010751227848231792
1685710173470443800,17.03644384765625,-0.013875367119908333,-0.006230825558304787,0.020629791542887688
1685710173490443800,17.05644384765625,-0.02272418700158596,0.008936085738241673,0.039758600294589996
1685710173510443800,17.07644384765625,-0.01935570128262043,-0.006073745898902416,0.027488935738801956
1685710173530443800,17.09644384765625,-0.0031066860537976027,-0.011850785464048386,0.01523672416806221
1685710173550443800,17.11644384765625,0.012775810435414314,-0.009808750823140144,0.019652407616376877
1685710173570472000,17.136471923828125,0.018675023689866066,0.0003490658418741077,0.020210912451148033
1685710173590443800,17.15644384765625,0.006195918656885624,-0.00411897711455822,0.018727382645010948
1685710173610443800,17.17644384765625,0.004206243436783552,0.0003316125657875091,0.003944444004446268
1685710173630443800,17.19644384765625,0.014311700128018856,0.012409291230142117,-0.030089477077126503
1685710173650443800,17.21644384765625,0.010943214409053326,-0.005532693583518267,-0.050073496997356415
1685710173670445600,17.236445556640625,-0.003857177682220936,-0.0009599310578778386,-0.030839968472719193
1685710173690445600,17.256445556640625,-0.011798425577580929,0.019600046798586845,0.009564404375851154
1685710173710445600,17.276445556640624,-0.010925761424005032,0.024329889565706253,0.029129544273018837
1685710173730445600,17.296445556640624,0.0019198621157556772,0.004450589418411255,0.02537708729505539
1685710173750445600,17.316445556640623,0.02272418700158596,0.0037873645778745413,0.010541788302361965
1685710173770443800,17.33644384765625,0.03356268256902695,0.005096361506730318,0.0018151424592360854
1685710173790443800,17.35644384765625,0.028710665181279182,-0.0021293016616255045,-0.003403391921892762
1685710173810443800,17.37644384765625,0.007609635591506958,0.0042236968874931335,-0.0025656339712440968
1685710173830443800,17.39644384765625,-0.003455751808360219,0.009180432185530663,-0.0028972465079277754
1685710173850443800,17.41644384765625,-0.012391837313771248,0.006911503616720438,-0.01647590845823288
1685710173870443800,17.43644384765625,-0.01302015595138073,-0.0006457717972807586,-0.019460421055555344
1685710173890443800,17.45644384765625,-0.0018500490114092827,0.0003316125657875091,-0.013316862285137177
1685710173910443800,17.47644384765625,0.004188789986073971,0.004904375411570072,-0.00024434609804302454
1685710173930461200,17.496461181640626,0.00411897711455822,0.0008377580670639873,0.016004668548703194
1685710173950443800,17.51644384765625,0.0047996556386351585,0.00024434609804302454,0.01005309633910656
1685710173970443800,17.53644384765625,0.00376991112716496,-0.0033684854861348867,-0.0034208453726023436
1685710173990443800,17.55644384765625,0.0007504915702156723,-0.007400196045637131,-0.015620696358382702
1685710174010443800,17.57644384765625,0.0010471974965184927,0.0006632251315750182,-0.007731808349490166
1685710174030443800,17.59644384765625,0.008499753661453724,0.007923794910311699,-0.011397000402212143
1685710174050445600,17.616445556640624,0.0051312679424881935,-0.0010471974965184927,-0.023055799305438995
1685710174070443800,17.63644384765625,0.000017453292457503267,-0.008639379404485226,-0.020472712814807892
1685710174090443800,17.65644384765625,-0.0020769417751580477,-0.001343903481028974,-0.010192723013460636
1685710174110443800,17.67644384765625,-0.0010122909443452954,0.011885692365467548,0.0005235987482592463
1685710174130443800,17.69644384765625,0.003298672381788492,0.012583823874592781,-0.00047123889089562
1685710174150443800,17.71644384765625,0.009791296906769276,-0.005235987715423107,-0.008587019518017769
1685710174170443800,17.73644384765625,0.00006981316983001307,-0.008796459063887596,-0.00017453292093705386
1685710174190443800,17.75644384765625,-0.016528267413377762,0,0.01045452244579792
1685710174210443800,17.77644384765625,0.0026529005263000727,0.01136209350079298,0.03420845419168472
1685710174230443800,17.79644384765625,0.0047996556386351585,-0.004607669077813625,0.03047344833612442
1685710174250443800,17.81644384765625,0.014154620468616486,0.0031939526088535786,0.00783652812242508
1685710174270443800,17.83644384765625,0.018762288615107536,-0.00027925267932005227,-0.011536626145243645
1685710174290443800,17.85644384765625,0.009320057928562164,-0.007470009382814169,-0.03206169977784157
1685710174310443800,17.87644384765625,-0.014276793226599693,0.0005585053586401045,-0.0190066359937191
1685710174330443800,17.89644384765625,-0.033056534826755524,0.0239110104739666,0.015062191523611546
1685710174350443800,17.91644384765625,-0.03410373255610466,0.021676989272236824,0.020839231088757515
1685710174370443800,17.93644384765625,-0.02267182618379593,0.01104793418198824,0.00609119888395071
1685710174390443800,17.95644384765625,-0.009337511844933033,0.013997540809214115,-0.00027925267932005227
1685710174410443800,17.97644384765625,0.0003665191470645368,0.008098327554762363,0.004171337001025677
1685710174430443800,17.99644384765625,0.006981316953897476,0.0017976891249418259,0.022183135151863098
1685710174450443800,18.01644384765625,0.011484266258776188,0.004939281847327948,0.022567106410861015
1685710174470443800,18.03644384765625,0.02347467839717865,-0.0075747291557490826,0.015777776017785072
1685710174490443800,18.05644384765625,0.022305307909846306,-0.007504915818572044,0.0009250245057046413
1685710174510443800,18.07644384765625,0.005619960371404886,-0.0005759586347267032,0.015585790388286114
1685710174530443800,18.09644384765625,-0.013910274021327496,0.010698867961764336,0.01021017599850893
1685710174550443800,18.11644384765625,-0.01860520988702774,0.006108652334660292,-0.008115780539810658
1685710174570468900,18.13646875,-0.020542524755001068,-0.0007504915702156723,-0.019879300147294998
1685710174590443800,18.15644384765625,-0.019303342327475548,-0.0016755161341279745,-0.0319744311273098
1685710174610443800,18.17644384765625,-0.007941247895359993,-0.00769690191373229,-0.026075219735503197
1685710174630459600,18.196459716796873,-0.009721484035253525,-0.0024085543118417263,-0.006841690745204687
1685710174650443800,18.21644384765625,-0.010262535884976387,0.007347836159169674,0.023631757125258446
1685710174670443800,18.23644384765625,-0.0017976891249418259,0.0018151424592360854,0.021711895242333412
1685710174690443800,18.25644384765625,0.0051312679424881935,-0.015132004395127296,-0.008517206646502018
1685710174710443800,18.27644384765625,-0.006667157635092735,-0.00989601667970419,0.014905111864209175
1685710174730443800,18.29644384765625,-0.008133234456181526,0.008115780539810658,0.04389503225684166
1685710174750445600,18.316445556640623,0.016894787549972534,0.01202531810849905,0.005515240598469973
1685710174770443800,18.33644384765625,0.022043507546186447,-0.003036872949451208,-0.021101031452417374
1685710174790443800,18.35644384765625,-0.0017976891249418259,-0.013700834475457668,0.009826203808188438
1685710174810443800,18.37644384765625,0.013386675156652927,0.013508847914636135,-0.01970476657152176
1685710174830443800,18.39644384765625,0.013735741376876831,0.013910274021327496,-0.0691150352358818
1685710174850443800,18.41644384765625,-0.02551671303808689,-0.022514747455716133,0.006579891312867403
1685710174870445600,18.436445556640624,-0.015428710728883743,0.01825614459812641,0.04461061581969261
1685710174890445600,18.456445556640624,0.017645278945565224,0.025830872356891632,-0.019774580374360085
1685710174910445600,18.476445556640623,0.020612338557839394,-0.027715828269720078,-0.03384193405508995
1685710174930443800,18.49644384765625,0.0017802357906475663,-0.0028972465079277754,-0.03544763848185539
1685710174950443800,18.51644384765625,-0.005270894151180983,0.003351032268255949,-0.0012391837080940604
1685710174970443800,18.53644384765625,-0.015777776017785072,0.003857177682220936,0.046792276203632355
1685710174990443800,18.55644384765625,-0.020367993041872978,0.012252211570739746,0.05187118425965309
1685710175010443800,18.57644384765625,-0.016406094655394554,-0.00017453292093705386,0.04375540465116501
1685710175030443800,18.59644384765625,-0.010873401537537575,0.0021642083302140236,0.048293258994817734
1685710175050445600,18.616445556640624,0.002478367416188121,0.028815384954214096,0.05417501926422119
1685710175070443800,18.63644384765625,0.0033684854861348867,0.02413790300488472,0.03366740047931671
1685710175090443800,18.65644384765625,-0.0190066359937191,-0.01186823844909668,-0.00996582955121994
1685710175110443800,18.67644384765625,-0.02436479553580284,-0.013526301831007004,-0.0068765971809625626
1685710175130443800,18.69644384765625,-0.012566370889544487,0.006667157635092735,0.002809980185702443
1685710175150443800,18.71644384765625,-0.004904375411570072,0.016144296154379845,-0.014905111864209175
1685710175170443800,18.73644384765625,-0.0103672556579113,-0.0019198621157556772,-0.01286307629197836
1685710175190443800,18.75644384765625,-0.01335176918655634,-0.005602506920695305,0.00989601667970419
1685710175210443800,18.77644384765625,0.006265731994062662,0.011257373727858067,0.013002702966332436
1685710175230443800,18.79644384765625,0.017680184915661812,0.0041015236638486385,-0.0016929693520069122
1685710175250443800,18.81644384765625,0.01567305624485016,-0.005340707488358021,-0.0026179938577115536
1685710175270443800,18.83644384765625,0.012740903533995152,-0.006894050631672144,-0.0008377580670639873
1685710175290443800,18.85644384765625,0.016144296154379845,0.0005759586347267032,-0.009320057928562164
1685710175310443800,18.87644384765625,0.019512781873345375,0.007941247895359993,-0.03354522958397865
1685710175330461200,18.896461181640625,0.004502949304878712,-0.012566370889544487,-0.036075957119464874
1685710175350443800,18.91644384765625,-0.005166174378246069,-0.010698867961764336,0.0021293016616255045
1685710175370443800,18.93644384765625,0.010681414976716042,0.013212142512202263,0.02028072625398636
1685710175390443800,18.95644384765625,0.024923302233219147,0.0036651913542300463,0.011885692365467548
1685710175410443800,18.97644384765625,0.01473057921975851,-0.018570303916931152,-0.0007330382941290736
1685710175430443800,18.99644384765625,0.008168140426278114,-0.009983283467590809,-0.013229595497250557
1685710175450445600,19.016445556640626,0.004206243436783552,-0.004625122528523207,-0.01886700838804245
1685710175470445600,19.036445556640626,-0.005550147034227848,-0.011571533046662807,-0.012618730776011944
1685710175490445600,19.056445556640625,-0.012828170321881771,-0.006387905217707157,0.02125811018049717
1685710175510445600,19.076445556640625,-0.0034732052590698004,0.014940018765628338,0.034836772829294205
1685710175530443800,19.09644384765625,0.016685348004102707,0.006562437862157822,0.008587019518017769
1685710175550443800,19.11644384765625,0.016859879717230797,-0.014608405530452728,-0.017331119626760483
1685710175570468900,19.13646875,0.019425515085458755,-0.005113814491778612,-0.01127482671290636
1685710175590443800,19.15644384765625,0.016353735700249672,0.007923794910311699,-0.007819075137376785
1685710175610443800,19.17644384765625,0.006248278543353081,-0.002722713630646467,-0.011850785464048386
1685710175630443800,19.19644384765625,0.00839503388851881,-0.015707964077591896,-0.016999507322907448
1685710175650443800,19.21644384765625,0.010559242218732834,-0.002600540639832616,-0.019512781873345375
1685710175670443800,19.23644384765625,-0.003403391921892762,0.0025656339712440968,-0.015795229002833366
1685710175690443800,19.25644384765625,-0.024644048884510994,0.00609119888395071,0.02612757869064808
1685710175710443800,19.27644384765625,-0.007557275705039501,0.0008203047327697277,0.05513495206832886
1685710175730443800,19.29644384765625,0.010245082899928093,-0.002199114765971899,-0.0070685832761228085
1685710175750443800,19.31644384765625,0.025813419371843338,-0.02439970336854458,-0.07695156335830688
1685710175770443800,19.33644384765625,0.02342231757938862,-0.023631757125258446,-0.07944738864898682
1685710175790443800,19.35644384765625,0.004241149872541428,-0.00593411922454834,-0.013316862285137177
1685710175810443800,19.37644384765625,-0.0286583062261343,0.005951572675257921,0.05178391933441162
1685710175830443800,19.39644384765625,-0.045692719519138336,0.025324726477265358,0.09498082101345062
1685710175850443800,19.41644384765625,-0.01975712738931179,0.022619467228651047,0.07295475900173187
1685710175870443800,19.43644384765625,0.012740903533995152,-0.0007853981805965304,0.0016929693520069122
1685710175890443800,19.45644384765625,0.02295107953250408,-0.03520328924059868,-0.06066764518618584
1685710175910443800,19.47644384765625,0.028466319665312767,-0.025324726477265358,-0.07642796635627747
1685710175930443800,19.49644384765625,0.007260569836944342,-0.008674286305904388,-0.0354301854968071
1685710175950445600,19.516445556640626,-0.007627088576555252,0.00062831852119416,0.010594148188829422
1685710175970445600,19.536445556640626,-0.00663225119933486,0.006230825558304787,0.0374373123049736
1685710175990445600,19.556445556640625,-0.00062831852119416,-0.000017453292457503267,0.041661009192466736
1685710176010443800,19.57644384765625,0.0068765971809625626,0.008168140426278114,0.01219985168427229
1685710176030461200,19.596461181640624,0.01129228062927723,0.0008726646192371845,-0.02577851340174675
1685710176050445600,19.616445556640624,0.005864306353032589,-0.014346606098115444,-0.029618237167596817
1685710176070443800,19.63644384765625,-0.002827433403581381,-0.0006981316837482154,-0.016667895019054413
1685710176090443800,19.65644384765625,-0.00593411922454834,0.007941247895359993,-0.013526301831007004
1685710176110443800,19.67644384765625,0.00502654816955328,-0.004817108623683453,-0.013543754816055298
1685710176130443800,19.69644384765625,0.015498523600399494,0.0010646508308127522,-0.02209586836397648
1685710176150443800,19.71644384765625,0.01679006777703762,0.005166174378246069,-0.02045525796711445
1685710176170443800,19.73644384765625,0.009826203808188438,0.0009599310578778386,-0.010035643354058266
1685710176190443800,19.75644384765625,-0.002775073517113924,0.010594148188829422,0.0050090947188436985
1685710176210443800,19.77644384765625,-0.003717551240697503,0.009634217247366905,0.009093165397644043
1685710176230443800,19.79644384765625,0.0014660765882581472,0.006771877408027649,0.0024434609804302454
1685710176250443800,19.81644384765625,0.001518436474725604,0.0103672556579113,-0.01045452244579792
1685710176270443800,19.83644384765625,-0.0007853981805965304,0.010349802672863007,-0.01424188632518053
1685710176290443800,19.85644384765625,0.006928957067430019,0.011030481196939945,-0.019373154267668724
1685710176310443800,19.87644384765625,0.019303342327475548,0.010245082899928093,-0.025883233174681664
1685710176330443800,19.89644384765625,0.020036378875374794,0.0028972465079277754,-0.018046705052256584
1685710176350443800,19.91644384765625,0.02457423508167267,-0.004904375411570072,-0.018832102417945862
1685710176370443800,19.93644384765625,0.027628561481833458,0.0008203047327697277,-0.042935099452733994
1685710176390443800,19.95644384765625,0.00855211354792118,-0.0008028514566831291,-0.019024088978767395
1685710176410443800,19.97644384765625,-0.01136209350079298,0.004694935865700245,0.022514747455716133
1685710176430443800,19.99644384765625,-0.00029670598451048136,0.013194689527153969,0.03405137360095978
1685710176450443800,20.01644384765625,0.0031241392716765404,0.010978121310472488,0.019774580374360085
1685710176470443800,20.03644384765625,-0.008534659631550312,0.006370451766997576,0.011746065691113472
1685710176490443800,20.05644384765625,-0.013910274021327496,0.006457718089222908,0.008918632753193378
1685710176510443800,20.07644384765625,-0.005899212788790464,0.005602506920695305,-0.009494591504335403
1685710176530443800,20.09644384765625,0.005759586580097675,-0.012374384328722954,-0.03358013555407524
1685710176550443800,20.11644384765625,0.013875367119908333,-0.012845623306930065,-0.031956978142261505
1685710176570473500,20.136473388671874,0.00954695139080286,-0.0008552113431505859,0.0003665191470645368
1685710176590443800,20.15644384765625,-0.016580628231167793,0.014992378652095795,0.06206390634179115
1685710176610443800,20.17644384765625,-0.025586526840925217,0.028117254376411438,0.06513568758964539
1685710176630443800,20.19644384765625,-0.016580628231167793,0.015446163713932037,0.011728612706065178
1685710176650443800,20.21644384765625,-0.006510077975690365,-0.008936085738241673,-0.034522611647844315
1685710176670443800,20.23644384765625,-0.005811946466565132,-0.0007330382941290736,-0.06599090248346329
1685710176690443800,20.25644384765625,-0.008918632753193378,0.0021293016616255045,-0.056409042328596115
1685710176710443800,20.27644384765625,-0.017296213656663895,-0.01111774705350399,-0.02497566118836403
1685710176730461200,20.296461181640623,-0.010995574295520782,-0.00921533815562725,0.01310742273926735
1685710176750443800,20.31644384765625,0.004363323096185923,0.017208946868777275,0.05988224595785141
1685710176770443800,20.33644384765625,-0.0010646508308127522,0.026459190994501114,0.08862782269716263
1685710176790443800,20.35644384765625,-0.010733774863183498,0.02237512171268463,0.05708971992135048
1685710176810443800,20.37644384765625,-0.006195918656885624,-0.006073745898902416,-0.0161268413066864
1685710176830443800,20.39644384765625,0.0032114058267325163,-0.018675023689866066,-0.06501351296901703
1685710176850443800,20.41644384765625,0.0037873645778745413,-0.007976154796779156,-0.057421330362558365
1685710176870443800,20.43644384765625,-0.0005061454721726477,0.0005061454721726477,-0.010890854522585869
1685710176890443800,20.45644384765625,-0.003752457909286022,0.010419615544378757,0.02370157092809677
1685710176910443800,20.47644384765625,-0.00020943951676599681,0.009442231617867947,0.03623303398489952
1685710176930443800,20.49644384765625,-0.003351032268255949,0.0030194194987416267,0.05101597309112549
1685710176950443800,20.51644384765625,0.0036128314677625895,0.009738937020301819,0.05190609022974968
1685710176970443800,20.53644384765625,0.01687733456492424,0.002146754879504442,0.018448129296302795
1685710176990443800,20.55644384765625,0.01780235767364502,-0.018971728160977364,-0.05152212083339691
1685710177010443800,20.57644384765625,0.006859143730252981,-0.022532200440764427,-0.10088002681732178
1685710177030443800,20.59644384765625,-0.008499753661453724,-0.005672320257872343,-0.10044369846582413
1685710177050445600,20.616445556640624,-0.03986331820487976,0.002809980185702443,-0.0630587488412857
1685710177070443800,20.63644384765625,-0.0627969428896904,0.006824237294495106,0.010506882332265377
1685710177090443800,20.65644384765625,-0.03331833705306053,0.03794345632195473,0.1088736355304718
1685710177110443800,20.67644384765625,0.01918116770684719,0.047054074704647064,0.07766715437173843
1685710177130443800,20.69644384765625,0.07967428117990494,-0.005689773242920637,-0.0423416867852211
1685710177150443800,20.71644384765625,0.06429792940616608,-0.03228859230875969,-0.18554595112800598
1685710177170443800,20.73644384765625,0.0028448866214603186,-0.011397000402212143,-0.2304009199142456
1685710177190443800,20.75644384765625,-0.060266219079494476,-0.0010995573829859495,-0.2007477730512619
1685710177210443800,20.77644384765625,-0.08098327368497849,0.02134537696838379,-0.14615386724472046
1685710177230443800,20.79644384765625,-0.07318165898323059,-0.0028448866214603186,-0.03925245627760887
1685710177250443800,20.81644384765625,-0.00708603672683239,0.012653636746108532,0.04012512043118477
1685710177270443800,20.83644384765625,0.06492624431848526,0.024207716807723045,0.052324969321489334
1685710177290443800,20.85644384765625,0.09524261951446533,0.036966074258089066,0.03728023171424866
1685710177310443800,20.87644384765625,0.03848451003432274,0.010698867961764336,-0.03431317210197449
1685710177330443800,20.89644384765625,-0.02701769582927227,-0.03733259439468384,-0.135402649641037
1685710177350443800,20.91644384765625,-0.06382668763399124,-0.019076447933912277,-0.23537510633468628
1685710177370443800,20.93644384765625,-0.08487536013126373,0.0032114058267325163,-0.20207421481609344
1685710177390443800,20.95644384765625,-0.10314895957708359,-0.017749998718500137,-0.09478883445262909
1685710177410443800,20.97644384765625,-0.06661921739578247,-0.03480186685919762,0.011588986031711102
1685710177430461200,20.996461181640626,0.010035643354058266,-0.006649704650044441,0.09716247767210007
1685710177450443800,21.01644384765625,0.08103563636541367,0.03757693991065025,0.18339920043945312
1685710177470443800,21.03644384765625,0.0719948336482048,0.04199262335896492,0.13456489145755768
1685710177490443800,21.05644384765625,-0.023527037352323532,-0.019774580374360085,-0.017331119626760483
1685710177510443800,21.07644384765625,-0.07675957679748535,-0.03597123548388481,-0.07668976485729218
1685710177530443800,21.09644384765625,-0.0815068781375885,-0.016580628231167793,-0.07166321575641632
1685710177550443800,21.11644384765625,-0.04934045672416687,-0.04115486517548561,-0.03618067502975464
1685710177570468900,21.13646875,0.03309144079685211,-0.01136209350079298,0.0988030880689621
1685710177590443800,21.15644384765625,0.10581931471824646,0.0662352442741394,0.2018822282552719
1685710177610443800,21.17644384765625,0.10046114772558212,0.05323254317045212,0.11224212497472763
1685710177630443800,21.19644384765625,0.0032114058267325163,-0.00954695139080286,-0.01633628085255623
1685710177650443800,21.21644384765625,-0.07705628871917725,-0.02370157092809677,-0.039130281656980515
1685710177670443800,21.23644384765625,-0.09283406287431717,-0.0184306763112545,-0.010751227848231792
1685710177690443800,21.25644384765625,-0.007679448463022709,-0.03375466912984848,0.0368788056075573
1685710177710443800,21.27644384765625,0.09142034500837326,-0.011484266258776188,0.07326892018318176
1685710177730443800,21.29644384765625,0.1572890728712082,0.021031217649579048,0.07340855151414871
1685710177750443800,21.31644384765625,0.10379473119974136,0.028239427134394646,0.02151990868151188
1685710177770443800,21.33644384765625,-0.03338814899325371,0.03132865950465202,0.006457718089222908
1685710177790443800,21.35644384765625,-0.13285446166992188,0.02715732343494892,-0.03188716620206833
1685710177810445600,21.376445556640626,-0.13254030048847198,0.02497566118836403,-0.08787732571363449
1685710177830443800,21.39644384765625,-0.08389797806739807,-0.015149458311498165,-0.046652652323246
1685710177850443800,21.41644384765625,0.023352505639195442,-0.00062831852119416,0.016929693520069122
1685710177870443800,21.43644384765625,0.12342968583106995,0.0038920841179788113,0.04468042775988579
1685710177890443800,21.45644384765625,0.16372933983802795,0.01532399095594883,0.044715333729982376
1685710177910443800,21.47644384765625,0.08138470351696014,0.01979203335940838,-0.038641590625047684
1685710177930443800,21.49644384765625,-0.04707153141498566,-0.013543754816055298,-0.1195201501250267
1685710177950443800,21.51644384765625,-0.10241591930389404,0.007365289609879255,-0.17088519036769867
1685710177970443800,21.53644384765625,-0.11274827271699905,0.012740903533995152,-0.07768460363149643
1685710177990443800,21.55644384765625,-0.0711570754647255,-0.049096111208200455,0.022078415378928185
1685710178010443800,21.57644384765625,0.023265238851308823,-0.048520151525735855,0.09108873456716537
1685710178030443800,21.59644384765625,0.13109168410301208,0.03232349827885628,0.18877480924129486
1685710178050445600,21.616445556640624,0.1584409922361374,0.06984807550907135,0.2255488932132721
1685710178070443800,21.63644384765625,0.0852418839931488,0.023439772427082062,0.1647241711616516
1685710178090443800,21.65644384765625,-0.0024085543118417263,-0.02848377265036106,0.05211552977561951
1685710178110443800,21.67644384765625,-0.03300417587161064,-0.01860520988702774,-0.09386380761861801
1685710178130461200,21.696461181640625,-0.06068509817123413,-0.0021293016616255045,-0.13985323905944824
1685710178150443800,21.71644384765625,-0.07066838443279266,-0.014608405530452728,-0.029164452105760574
1685710178170443800,21.73644384765625,-0.01539380382746458,0.020786872133612633,0.11082840710878372
1685710178190443800,21.75644384765625,0.06630505621433258,0.03808308392763138,0.15084880590438843
1685710178210443800,21.77644384765625,0.0886976346373558,0.008831365965306759,0.0852593332529068
1685710178230443800,21.79644384765625,0.05218534544110298,-0.023858651518821716,0.008517206646502018
1685710178250443800,21.81644384765625,-0.004660028964281082,-0.00331612559966743,-0.019373154267668724
1685710178270443800,21.83644384765625,-0.04344124346971512,0.007295476272702217,-0.05572836101055145
1685710178290443800,21.85644384765625,-0.04689699783921242,-0.001658062799833715,-0.07675957679748535
1685710178310443800,21.87644384765625,-0.020612338557839394,-0.009581857360899448,-0.04284783452749252
1685710178330443800,21.89644384765625,0.014660765416920185,0.011100294068455696,-0.008185594342648983
1685710178350443800,21.91644384765625,0.03188716620206833,0.012932890094816685,-0.01226966455578804
1685710178370443800,21.93644384765625,0.026319565251469612,-0.01151917316019535,-0.022846359759569168
1685710178390443800,21.95644384765625,0.018675023689866066,-0.011588986031711102,-0.011431906372308731
1685710178410443800,21.97644384765625,0.015289084054529667,0.0063355453312397,0.016842426732182503
1685710178430443800,21.99644384765625,0.011239920742809772,0.0012391837080940604,0.06171484291553497
1685710178450443800,22.01644384765625,0.013526301831007004,0.006719517521560192,0.053791046142578125
1685710178470443800,22.03644384765625,-0.0013264502631500363,0.012409291230142117,0.004241149872541428
1685710178490443800,22.05644384765625,-0.04761258140206337,0.0037873645778745413,-0.02822197414934635
1685710178510443800,22.07644384765625,-0.07340855151414871,-0.006667157635092735,-0.08307766914367676
1685710178530443800,22.09644384765625,-0.04914847016334534,-0.01682497374713421,-0.11440633237361908
1685710178550443800,22.11644384765625,-0.0019198621157556772,-0.02802998758852482,-0.06469935178756714
1685710178570473500,22.136473388671874,0.0460766926407814,-0.014800392091274261,0.06351253390312195
1685710178590443800,22.15644384765625,0.07464773207902908,0.003490658476948738,0.18413223326206207
1685710178610443800,22.17644384765625,0.06028367206454277,0.022706734016537666,0.16920967400074005
1685710178630443800,22.19644384765625,-0.003508111694827676,0.005742133129388094,0.05836381018161774
1685710178650443800,22.21644384765625,-0.07679449021816254,-0.01665044017136097,-0.035185836255550385
1685710178670443800,22.23644384765625,-0.11644836515188217,-0.009494591504335403,-0.07227408140897751
1685710178690443800,22.25644384765625,-0.09190903604030609,-0.0008552113431505859,-0.0728849470615387
1685710178710443800,22.27644384765625,-0.019687313586473465,-0.013386675156652927,-0.023492131382226944
1685710178730443800,22.29644384765625,0.055204764008522034,-0.005811946466565132,0.07627088576555252
1685710178750443800,22.31644384765625,0.07635815441608429,0.010419615544378757,0.14845770597457886
1685710178770443800,22.33644384765625,0.033126350492239,0.018762288615107536,0.1313360184431076
1685710178790443800,22.35644384765625,-0.03317870944738388,0.008674286305904388,0.026075219735503197
1685710178810443800,22.37644384765625,-0.06419321149587631,-0.00609119888395071,-0.06241297349333763
1685710178830461200,22.396461181640625,-0.03675663471221924,-0.013980086892843246,-0.08197811245918274
1685710178850443800,22.41644384765625,0.018744835630059242,-0.00040142572834156454,-0.07396705448627472
1685710178870443800,22.43644384765625,0.051487211138010025,-0.0031415927223861217,-0.01993165910243988
1685710178890443800,22.45644384765625,0.028099801391363144,0.006195918656885624,0.02321287989616394
1685710178910443800,22.47644384765625,-0.018133969977498055,0.03494149073958397,0.007853982038795948
1685710178930443800,22.49644384765625,-0.025935592129826546,0.01647590845823288,-0.054454270750284195
1685710178950443800,22.51644384765625,-0.0008901178953237832,-0.02502802200615406,-0.08365362882614136
1685710178970443800,22.53644384765625,0.01633628085255623,-0.012636183761060238,-0.02151990868151188
1685710178990443800,22.55644384765625,0.02888519875705242,0.018675023689866066,0.09471901506185532
1685710179010445600,22.576445556640625,0.034697145223617554,0.021066123619675636,0.1618443876504898
1685710179030445600,22.596445556640624,0.030421089380979538,0.02617993950843811,0.08763298392295837
1685710179050445600,22.616445556640624,0.011746065691113472,0.008115780539810658,-0.025237461552023888
1685710179070443800,22.63644384765625,-0.014119713567197323,-0.027122415602207184,-0.10149089246988297
1685710179090443800,22.65644384765625,-0.01424188632518053,-0.017784904688596725,-0.1656317412853241
1685710179110443800,22.67644384765625,-0.004852015525102615,-0.019565140828490257,-0.13501867651939392
1685710179130443800,22.69644384765625,0.029286624863743782,-0.01975712738931179,-0.005323254037648439
1685710179150443800,22.71644384765625,0.052953287959098816,0.027838001027703285,0.1250004768371582
1685710179170443800,22.73644384765625,0.03644247353076935,0.04525638744235039,0.19043287634849548
1685710179190443800,22.75644384765625,0.004502949304878712,0.03171263262629509,0.08885471522808075
1685710179210443800,22.77644384765625,-0.03522074595093727,-0.00502654816955328,-0.0849800780415535
1685710179230443800,22.79644384765625,-0.051574479788541794,-0.023945916444063187,-0.1877799779176712
1685710179250443800,22.81644384765625,-0.04729842394590378,-0.018675023689866066,-0.15341444313526154
1685710179270443800,22.83644384765625,-0.022619467228651047,-0.0003490658418741077,-0.01607448235154152
1685710179290443800,22.85644384765625,0.03757693991065025,0.014870204962790012,0.12349949777126312
1685710179310443800,22.87644384765625,0.08674286305904388,0.018483037129044533,0.2016204297542572
1685710179330443800,22.89644384765625,0.09396852552890778,0.012618730776011944,0.189560204744339
1685710179350443800,22.91644384765625,0.0601964071393013,0.010524335317313671,0.06098180264234543
1685710179370443800,22.93644384765625,0.01408480666577816,0.028274333104491234,-0.05590289458632469
1685710179390443800,22.95644384765625,-0.0670904591679573,-0.008918632753193378,-0.14470525085926056
1685710179410443800,22.97644384765625,-0.10271262377500534,-0.018238689750432968,-0.14529865980148315
1685710179430443800,22.99644384765625,-0.08112290501594543,-0.001117010717280209,-0.04214970022439957
1685710179450443800,23.01644384765625,0.01886700838804245,0.001972222002223134,0.06274458765983582
1685710179470443800,23.03644384765625,0.12774065136909485,-0.007417649496346712,0.12838642299175262
1685710179490443800,23.05644384765625,0.17495180666446686,-0.008098327554762363,0.15503759682178497
1685710179510443800,23.07644384765625,0.10587166994810104,0.018168877810239792,0.13548991084098816
1685710179530461200,23.096461181640624,-0.037227872759103775,0.037088245153427124,0.07094763219356537
1685710179550445600,23.116445556640624,-0.14248867332935333,0.03090978041291237,-0.06258750706911087
1685710179570470400,23.136470458984373,-0.15477579832077026,-0.0013962633674964309,-0.18849556148052216
1685710179590445600,23.156445556640627,-0.06700319051742554,-0.03577924892306328,-0.2085668444633484
1685710179610445600,23.176445556640626,0.008779006078839302,-0.06731735169887543,-0.11662290245294571
1685710179630445600,23.196445556640626,0.10475466400384903,-0.05084143951535225,0.06927211582660675
1685710179650443800,23.21644384765625,0.13700833916664124,0.04317944496870041,0.2203652709722519
1685710179670443800,23.23644384765625,0.04199262335896492,0.056984998285770416,0.25452136993408203
1685710179690443800,23.25644384765625,-0.08134979754686356,0.017610372975468636,0.10780898481607437
1685710179710443800,23.27644384765625,-0.11569787561893463,-0.02998475730419159,-0.12480849772691727
1685710179730445600,23.296445556640624,-0.10526080429553986,-0.008377579972147942,-0.2997777462005615
1685710179750445600,23.316445556640623,-0.09581857919692993,-0.054681167006492615,-0.19378390908241272
1685710179770445600,23.336445556640626,-0.0360061414539814,-0.02453932911157608,0.029653143137693405
1685710179790443800,23.35644384765625,0.038152895867824554,0.050998520106077194,0.10007718205451965
1685710179810443800,23.37644384765625,0.036337755620479584,0.041032690554857254,0.10351547598838806
1685710179830443800,23.39644384765625,-0.0040317103266716,-0.03216641768813133,0.18299777805805206
1685710179850443800,23.41644384765625,-0.005270894151180983,0.05071926862001419,0.14955726265907288
1685710179870443800,23.43644384765625,-0.01342158205807209,-0.005497787147760391,0.03323106840252876
1685710179890445600,23.456445556640624,-0.026302112266421318,-0.06789331138134003,-0.03565707802772522
1685710179910445600,23.476445556640623,-0.02413790300488472,-0.05302310362458229,-0.09040805697441101
1685710179930443800,23.49644384765625,0.024591689929366112,-0.024591689929366112,-0.06276203691959381
1685710179950443800,23.51644384765625,0.0247662216424942,-0.008377579972147942,-0.003979350905865431
1685710179970443800,23.53644384765625,0.019722219556570053,0.007225662935525179,0.03834488242864609
1685710179990443800,23.55644384765625,0.06656685471534729,0.004974188283085823,0.08023278415203094
1685710180010443800,23.57644384765625,0.07108726352453232,0.010925761424005032,0.10438814014196396
1685710180030443800,23.59644384765625,0.04911356419324875,-0.015358896926045418,0.10259045660495758
1685710180050445600,23.616445556640624,-0.00502654816955328,-0.009861109778285027,0.04766494035720825
1685710180070443800,23.63644384765625,-0.03707079216837883,0.022776545956730843,-0.03157300502061844
1685710180090445600,23.656445556640627,-0.04455825686454773,0.04366813600063324,-0.10611601918935776
1685710180110445600,23.676445556640626,-0.026459190994501114,0.025411993265151978,-0.11269591003656387
1685710180130443800,23.69644384765625,0.00548033369705081,0.001518436474725604,-0.013980086892843246
1685710180150445600,23.716445556640625,0.052290063351392746,0.022427480667829514,0.07550293952226639
1685710180170445600,23.736445556640625,0.06054547056555748,0.020629791542887688,0.14678218960762024
1685710180190443800,23.75644384765625,0.0506843626499176,0.0119555052369833,0.18409733474254608
1685710180210443800,23.77644384765625,0.02165953628718853,0.0256388857960701,0.12808971107006073
1685710180230459600,23.796459716796875,-0.02595304511487484,0.011187560856342316,0.03645992651581764
1685710180250443800,23.81644384765625,-0.08087855577468872,-0.005427973810583353,-0.011833332479000092
1685710180270443800,23.83644384765625,-0.09012880176305771,-0.004712388850748539,0.015358896926045418
1685710180290443800,23.85644384765625,-0.03082251362502575,-0.01226966455578804,0.031956978142261505
1685710180310443800,23.87644384765625,0.051626838743686676,-0.03406882658600807,0.03879866749048233
