time,seconds_elapsed,z,y,x
1685683420410448600,0.10744873046875,10.054986000061035,2.137725353240967,-0.3341539204120636
1685683420430448600,0.12744873046875,9.831291198730469,1.974057674407959,-0.3858591318130493
1685683420450450200,0.1474501953125,9.502318382263184,2.030397891998291,-0.2494470775127411
1685683420470448600,0.16744873046875,9.409097671508789,2.0333380699157715,-0.16383042931556702
1685683420490448600,0.18744873046875,9.736117362976074,2.0635814666748047,-0.28740954399108887
1685683420510448600,0.20744873046875,9.671568870544434,2.125093460083008,-0.25246378779411316
1685683420530448600,0.22744873046875,9.385692596435547,2.0889313220977783,-0.27697083353996277
1685683420550448600,0.24744873046875,9.567249298095703,2.1043307781219482,-0.2603071928024292
1685683420570448600,0.26744873046875,9.891395568847656,2.0958938598632812,-0.24008096754550934
1685683420590448600,0.28744873046875,9.77574634552002,1.9738086462020874,-0.28448861837387085
1685683420610450200,0.3074501953125,9.51146411895752,1.9515904188156128,-0.032216377556324005
1685683420630451700,0.32745166015625,9.63863468170166,2.033031702041626,-0.41783609986305237
1685683420650448600,0.34744873046875,9.659157752990723,2.1570703983306885,-0.1997913420200348
1685683420670448600,0.36744873046875,9.579584121704102,1.862353801727295,0.07679641991853714
1685683420690448600,0.38744873046875,10.21955394744873,1.9762507677078247,-0.14835430681705475
1685683420710448600,0.40744873046875,9.86545181274414,1.978089451789856,-0.6989728212356567
1685683420730448600,0.42744873046875,9.219093322753906,2.2029623985290527,-0.5831030011177063
1685683420750448600,0.44744873046875,8.841882705688477,2.168466806411743,-0.38788941502571106
1685683420770448600,0.46744873046875,9.038121223449707,2.2372281551361084,-0.3777092695236206
1685683420790448600,0.48744873046875,8.809886932373047,2.1067442893981934,-0.5432634949684143
1685683420810448600,0.50744873046875,9.0978422164917,2.03352952003479,-0.6472772359848022
1685683420830453200,0.527453369140625,9.506436347961426,1.9948105812072754,-0.5803449153900146
1685683420850448600,0.54744873046875,9.688692092895508,2.0999064445495605,-0.43607988953590393
1685683420870448600,0.56744873046875,9.823610305786133,1.9627952575683594,-0.585286557674408
1685683420890448600,0.58744873046875,9.821139335632324,2.019806146621704,-0.6342240571975708
1685683420910448600,0.60744873046875,9.319544792175293,2.2711684703826904,-0.5738709568977356
1685683420930448600,0.62744873046875,9.16096305847168,2.3809475898742676,-0.47135129570961
1685683420950448600,0.64744873046875,9.718591690063477,2.19779109954834,-0.4389050602912903
1685683420970448600,0.66744873046875,10.382063865661621,1.9652948379516602,-0.47903189063072205
1685683420990448600,0.68744873046875,10.758172988891602,1.8967344760894775,-0.6466643214225769
1685683421010448600,0.70744873046875,10.376517295837402,1.8260672092437744,-0.6952090859413147
1685683421030448600,0.72744873046875,9.601677894592285,1.9935752153396606,-0.727827787399292
1685683421050448600,0.74744873046875,9.350823402404785,2.212146520614624,-0.7773590087890625
1685683421070448600,0.76744873046875,9.073795318603516,2.2168009281158447,-0.6145819425582886
1685683421090448600,0.78744873046875,9.181361198425293,2.249189615249634,-0.44273579120635986
1685683421110448600,0.80744873046875,9.140085220336914,2.307464599609375,-0.010735600255429745
1685683421130448600,0.82744873046875,8.92867660522461,2.0174405574798584,-0.04429273307323456
1685683421150448600,0.84744873046875,9.174283981323242,2.0632081031799316,-0.5229128003120422
1685683421170448600,0.86744873046875,9.41960334777832,2.2248454093933105,-0.6837744116783142
1685683421190448600,0.88744873046875,9.693126678466797,2.191202163696289,-0.616890013217926
1685683421210450200,0.9074501953125,9.642637252807617,2.0026636123657227,-0.35325008630752563
1685683421230448600,0.92744873046875,9.333489418029785,1.976576328277588,-0.5232767462730408
1685683421250448600,0.94744873046875,9.56302547454834,2.049063205718994,-1.029832363128662
1685683421270448600,0.96744873046875,9.300804138183594,2.106811285018921,-0.25439828634262085
1685683421290448600,0.98744873046875,9.097688674926758,1.8301948308944702,-0.29530084133148193
1685683421310448600,1.00744873046875,9.90803050994873,1.6396163702011108,-0.3196067810058594
1685683421330448600,1.02744873046875,10.205486297607422,1.6602638959884644,-0.24931301176548004
1685683421350448600,1.04744873046875,10.15097427368164,1.7334691286087036,-0.14807657897472382
1685683421370448600,1.06744873046875,9.558649063110352,2.071559190750122,0.2949847877025604
1685683421390448600,1.08744873046875,9.6087646484375,1.5025053024291992,-0.05725015327334404
1685683421410448600,1.10744873046875,9.57747745513916,1.8878949880599976,0.020321983844041824
1685683421430448600,1.12744873046875,9.36689281463623,1.6428916454315186,0.10932882875204086
1685683421450448600,1.14744873046875,9.768630027770996,1.5722148418426514,0.10105446726083755
1685683421470448600,1.16744873046875,10.020078659057617,1.1255525350570679,0.2302360087633133
1685683421490448600,1.18744873046875,10.805291175842285,1.0999058485031128,-0.11138784140348434
1685683421510448600,1.20744873046875,10.499062538146973,1.1890084743499756,-0.21310310065746307
1685683421530448600,1.22744873046875,9.429486274719238,1.2012954950332642,0.11985373497009277
1685683421550448600,1.24744873046875,9.571500778198242,1.4526963233947754,-0.3565541207790375
1685683421570448600,1.26744873046875,9.51146411895752,1.5261982679367065,-0.7683854699134827
1685683421590448600,1.28744873046875,10.154824256896973,1.6152434349060059,-0.5858036875724792
1685683421610450200,1.3074501953125,9.702991485595703,1.4528398513793945,0.11902055144309998
1685683421630448600,1.32744873046875,9.391332626342773,1.6291297674179077,0.014834473840892315
1685683421650448600,1.34744873046875,9.301933288574219,1.4957727193832397,0.1521179974079132
1685683421670448600,1.36744873046875,9.594255447387695,1.2580764293670654,0.0051810527220368385
1685683421690448600,1.38744873046875,9.87548828125,1.0358848571777344,-0.0015801731497049332
1685683421710448600,1.40744873046875,9.752847671508789,0.9448668956756592,-0.026594793424010277
1685683421730448600,1.42744873046875,10.245890617370605,0.7391666769981384,0.5026099681854248
1685683421750448600,1.44744873046875,10.777355194091797,0.8260570764541626,0.16021040081977844
1685683421770448600,1.46744873046875,10.115636825561523,1.3001282215118408,0.050986919552087784
1685683421790448600,1.48744873046875,9.332914352416992,1.4707293510437012,-0.4705564081668854
1685683421810448600,1.50744873046875,8.874673843383789,1.0026054382324219,-0.9213271737098694
1685683421830448600,1.52744873046875,9.18821907043457,1.2168099880218506,-0.9693931341171265
1685683421850448600,1.54744873046875,9.587101936340332,1.057854175567627,-1.0456914901733398
1685683421870448600,1.56744873046875,9.969427108764648,0.8711925745010376,-0.9362478256225586
1685683421890448600,1.58744873046875,9.724519729614258,1.3121470212936401,-0.18475575745105743
1685683421910448600,1.60744873046875,9.951221466064453,1.7923376560211182,0.5335239171981812
1685683421930448600,1.62744873046875,10.487944602966309,1.468785285949707,0.6520943641662598
1685683421950448600,1.64744873046875,10.210801124572754,1.0865652561187744,-0.2588036060333252
1685683421970448600,1.66744873046875,9.846450805664062,0.9440720081329346,-1.114500880241394
1685683421990448600,1.68744873046875,8.861868858337402,1.4406964778900146,-0.9644131660461426
1685683422010448600,1.70744873046875,9.188390731811523,1.7797058820724487,-0.23915202915668488
1685683422030450200,1.7274501953125,9.580177307128906,1.7385064363479614,-0.24077048897743225
1685683422050448600,1.74744873046875,9.359892845153809,1.2844221591949463,-0.243471160531044
1685683422070448600,1.76744873046875,9.470015525817871,1.2006251811981201,-0.8686546683311462
1685683422090448600,1.78744873046875,9.707884788513184,1.030962347984314,-1.1197776794433594
1685683422110448600,1.80744873046875,9.622421264648438,0.9905674457550049,-0.6891470551490784
1685683422130448600,1.82744873046875,10.242232322692871,1.2280243635177612,-0.31440654397010803
1685683422150448600,1.84744873046875,10.874032974243164,1.4722329378128052,-0.9414767622947693
1685683422170448600,1.86744873046875,10.858183860778809,1.5953141450881958,-0.5516623258590698
1685683422190448600,1.88744873046875,9.582782745361328,1.6425755023956299,-0.3381378948688507
1685683422210448600,1.90744873046875,9.290728569030762,1.5795890092849731,-0.24925555288791656
1685683422230448600,1.92744873046875,8.904170036315918,1.8445887565612793,0.009902418591082096
1685683422250448600,1.94744873046875,9.292662620544434,1.6450560092926025,-0.3077506721019745
1685683422270448600,1.96744873046875,9.838531494140625,1.5378435850143433,-0.22184672951698303
1685683422290448600,1.98744873046875,9.646353721618652,1.5185463428497314,-0.1354256272315979
1685683422310448600,2.00744873046875,9.011650085449219,1.5065083503723145,-0.11675085127353668
1685683422330448600,2.02744873046875,9.341686248779297,1.5923835039138794,-0.18905574083328247
1685683422350448600,2.04744873046875,9.570333480834961,1.6780767440795898,-0.35719573497772217
1685683422370448600,2.06744873046875,9.698471069335938,1.6405549049377441,-0.13199713826179504
1685683422390448600,2.08744873046875,10.025298118591309,1.2914131879806519,0.029448680579662323
1685683422410448600,2.10744873046875,10.449618339538574,1.2789058685302734,-0.04729027301073074
1685683422430448600,2.12744873046875,9.675304412841797,1.514389991760254,0.11450030654668808
1685683422450448600,2.14744873046875,9.447279930114746,1.8619993925094604,-0.40419870615005493
1685683422470448600,2.16744873046875,9.512527465820312,1.740383505821228,-0.17631858587265015
1685683422490448600,2.18744873046875,9.993781089782715,1.2952919006347656,-0.010371682234108448
1685683422510448600,2.20744873046875,10.30716323852539,1.380362629890442,-0.011070788837969303
1685683422530448600,2.22744873046875,9.734029769897461,1.3872963190078735,-0.117191381752491
1685683422550448600,2.24744873046875,9.35976791381836,1.5177706480026245,-0.1013130396604538
1685683422570448600,2.26744873046875,9.718658447265625,1.6574770212173462,-0.2623278796672821
1685683422590448600,2.28744873046875,9.784144401550293,1.5335915088653564,-0.2453673779964447
1685683422610448600,2.30744873046875,9.672470092773438,1.6214779615402222,-0.14508862793445587
1685683422630448600,2.32744873046875,9.591028213500977,1.5287361145019531,-0.06196194142103195
1685683422650448600,2.34744873046875,9.531614303588867,1.4646002054214478,0.04239652305841446
1685683422670448600,2.36744873046875,9.676002502441406,1.5143996477127075,0.1413823962211609
1685683422690448600,2.38744873046875,9.657865524291992,1.4910322427749634,0.041170693933963776
1685683422710448600,2.40744873046875,9.684019088745117,1.422989010810852,-0.13831782341003418
1685683422730448600,2.42744873046875,9.843587875366211,1.3649247884750366,-0.15525919198989868
1685683422750448600,2.44744873046875,9.828408241271973,1.3607014417648315,-0.3290973901748657
1685683422770448600,2.46744873046875,9.97730827331543,1.3292511701583862,-0.29651710391044617
1685683422790448600,2.48744873046875,9.809858322143555,1.3007218837738037,-0.14805743098258972
1685683422810448600,2.50744873046875,9.539801597595215,1.2283021211624146,-0.2750363051891327
1685683422830448600,2.52744873046875,9.45155143737793,1.2859066724777222,-0.15269261598587036
1685683422850448600,2.54744873046875,9.43574047088623,1.330476999282837,-0.0970226302742958
1685683422870448600,2.56744873046875,9.291350364685059,1.3099826574325562,-0.1608041673898697
1685683422890448600,2.58744873046875,9.934778213500977,1.2506064176559448,-0.36407190561294556
1685683422910448600,2.60744873046875,10.170673370361328,1.1691460609436035,-0.2656031548976898
1685683422930448600,2.62744873046875,9.922874450683594,1.6107805967330933,-0.222258523106575
1685683422950448600,2.64744873046875,9.611848831176758,1.687481164932251,-0.18075264990329742
1685683422970448600,2.66744873046875,9.815853118896484,1.5422489643096924,-0.14211022853851318
1685683422990448600,2.68744873046875,9.69384479522705,1.5447580814361572,-0.007814674638211727
1685683423010448600,2.70744873046875,9.673388481140137,1.4688235521316528,-0.1336730718612671
1685683423030448600,2.72744873046875,9.683320045471191,1.4054155349731445,-0.08308837562799454
1685683423050448600,2.74744873046875,9.954889297485352,1.3595808744430542,-0.07622180134057999
1685683423070448600,2.76744873046875,9.855195045471191,1.3287627696990967,-0.08574114739894867
1685683423090448600,2.78744873046875,9.695673942565918,1.473544955253601,-0.09097008407115936
1685683423110448600,2.80744873046875,9.847371101379395,1.602372169494629,-0.2797960042953491
1685683423130448600,2.82744873046875,9.69555950164795,1.742021083831787,-0.08122090250253677
1685683423150448600,2.84744873046875,9.634421348571777,1.6356419324874878,-0.11435665190219879
1685683423170448600,2.86744873046875,9.46168327331543,1.4146859645843506,-0.07409575581550598
1685683423190448600,2.88744873046875,9.646381378173828,1.699576735496521,0.07789774239063263
1685683423210448600,2.90744873046875,9.431709289550781,1.5699928998947144,0.16441461443901062
1685683423230448600,2.92744873046875,9.408580780029297,1.600523829460144,0.13493721187114716
1685683423250448600,2.94744873046875,9.549647331237793,1.6926910877227783,-0.041525036096572876
1685683423270448600,2.96744873046875,9.560717582702637,1.6800113916397095,-0.039944861084222794
1685683423290448600,2.98744873046875,9.480167388916016,1.6602543592453003,-0.01139640063047409
1685683423310448600,3.00744873046875,9.6050386428833,1.6795995235443115,0.010065224021673203
1685683423330448600,3.02744873046875,9.752243995666504,1.6636828184127808,-0.07806055247783661
1685683423350448600,3.04744873046875,9.886214256286621,1.6783736944198608,0.06583096832036972
1685683423370448600,3.06744873046875,9.77334213256836,1.7051695585250854,-0.07706456631422043
1685683423390448600,3.08744873046875,9.259221076965332,1.8192198276519775,-0.09234914928674698
1685683423410448600,3.10744873046875,9.603372573852539,1.5938870906829834,-0.1305510252714157
1685683423430448600,3.12744873046875,9.275653839111328,0.3785232901573181,-1.008217453956604
1685683423450448600,3.14744873046875,10.795082092285156,1.9173054695129395,0.3245292603969574
1685683423470448600,3.16744873046875,10.073890686035156,2.4577245712280273,0.4274511933326721
1685683423490448600,3.18744873046875,9.407890319824219,1.8580058813095093,-0.19324082136154175
1685683423510448600,3.20744873046875,9.535675048828125,1.827714443206787,-0.35996344685554504
1685683423530448600,3.22744873046875,9.608065605163574,1.7856531143188477,-0.3453300893306732
1685683423550448600,3.24744873046875,9.632332801818848,1.8655619621276855,-0.27408820390701294
1685683423570448600,3.26744873046875,9.888168334960938,1.9636188745498657,-0.4348253607749939
1685683423590448600,3.28744873046875,10.242327690124512,2.1452910900115967,-0.19978177547454834
1685683423610448600,3.30744873046875,9.963546752929688,2.295167922973633,-0.3967575430870056
1685683423630448600,3.32744873046875,9.523866653442383,2.298194169998169,-0.19068381190299988
1685683423650448600,3.34744873046875,8.723657608032227,2.109617233276367,-0.2043786346912384
1685683423670448600,3.36744873046875,9.377081871032715,2.0731968879699707,-0.07252515107393265
1685683423690450200,3.3874501953125,9.593911170959473,2.0011789798736572,-0.18375976383686066
1685683423710448600,3.40744873046875,9.542981147766113,2.2914137840270996,-0.1944570690393448
1685683423730448600,3.42744873046875,9.155694961547852,2.354161024093628,-0.4134211838245392
1685683423750448600,3.44744873046875,9.485099792480469,2.368248462677002,-0.32905909419059753
1685683423770448600,3.46744873046875,9.387310981750488,2.330937147140503,-0.3967096507549286
1685683423790448600,3.48744873046875,9.755884170532227,2.333800792694092,-0.4138137996196747
1685683423810448600,3.50744873046875,9.621454238891602,2.037992477416992,-0.24631547927856445
1685683423830448600,3.52744873046875,9.404568672180176,2.317596912384033,0.22303426265716553
1685683423850448600,3.54744873046875,9.356406211853027,2.5808920860290527,-0.04533660411834717
1685683423870448600,3.56744873046875,9.615832328796387,2.2717814445495605,-0.21119733154773712
1685683423890448600,3.58744873046875,10.247556686401367,2.377509355545044,-0.24771368503570557
1685683423910448600,3.60744873046875,10.183976173400879,2.573920249938965,-0.29986900091171265
1685683423930448600,3.62744873046875,9.818276405334473,2.8396286964416504,-0.1760600060224533
1685683423950448600,3.64744873046875,9.315033912658691,2.735949993133545,-0.14011825621128082
1685683423970448600,3.66744873046875,9.469671249389648,2.8409979343414307,-0.16616716980934143
1685683423990448600,3.68744873046875,9.527236938476562,2.9726407527923584,-0.02445916458964348
1685683424010448600,3.70744873046875,9.067760467529297,2.9076526165008545,-0.15539325773715973
1685683424030448600,3.72744873046875,9.121228218078613,2.6304519176483154,0.07224743068218231
1685683424050448600,3.74744873046875,9.27940845489502,2.2029528617858887,-0.10951078683137894
1685683424070448600,3.76744873046875,10.283920288085938,2.6229629516601562,-0.09438900649547577
1685683424090448600,3.78744873046875,9.968862533569336,2.5331037044525146,-0.37494155764579773
1685683424110448600,3.80744873046875,9.927518844604492,2.747375249862671,-0.32939425110816956
1685683424130448600,3.82744873046875,9.362716674804688,2.825655937194824,-0.17587804794311523
1685683424150448600,3.84744873046875,9.262131690979004,2.8833179473876953,0.11560162901878357
1685683424170448600,3.86744873046875,9.270215034484863,2.7673332691192627,0.10516291856765747
1685683424190448600,3.88744873046875,9.022510528564453,2.6303179264068604,0.19017621874809265
1685683424210448600,3.90744873046875,9.327350616455078,2.7560901641845703,0.14306791126728058
1685683424230448600,3.92744873046875,9.176936149597168,2.4540185928344727,-0.18546444177627563
1685683424250448600,3.94744873046875,9.727842330932617,2.761453151702881,-0.0591176301240921
1685683424270448600,3.96744873046875,9.805912971496582,2.6446638107299805,-0.21243272721767426
1685683424290448600,3.98744873046875,10.219545364379883,2.8152363300323486,-0.031086314469575882
1685683424310448600,4.00744873046875,9.451197624206543,2.6588375568389893,-0.14266569912433624
1685683424330448600,4.02744873046875,9.11865234375,3.060833692550659,0.08121132105588913
1685683424350448600,4.04744873046875,8.731040954589844,2.8988993167877197,0.18142303824424744
1685683424370448600,4.06744873046875,9.099939346313477,2.6773879528045654,0.3098863363265991
1685683424390448600,4.08744873046875,9.45960521697998,2.3758621215820312,0.2618298828601837
1685683424410448600,4.10744873046875,9.4599027633667,2.46456241607666,0.07423940300941467
1685683424430448600,4.12744873046875,9.573827743530273,2.619668483734131,-0.19280028343200684
1685683424450448600,4.14744873046875,9.616320610046387,2.6515016555786133,-0.3112366199493408
1685683424470448600,4.16744873046875,9.860501289367676,2.6200993061065674,-0.27490225434303284
1685683424490448600,4.18744873046875,9.757434844970703,2.7878754138946533,-0.1688295304775238
1685683424510448600,4.20744873046875,9.487972259521484,3.0128636360168457,0.13491806387901306
1685683424530448600,4.22744873046875,9.53653621673584,2.8602092266082764,-0.024181436747312546
1685683424550448600,4.24744873046875,9.74925708770752,2.7565689086914062,0.05480806529521942
1685683424570448600,4.26744873046875,9.478443145751953,2.6280863285064697,-0.046955082565546036
1685683424590448600,4.28744873046875,9.375166893005371,2.589855909347534,-0.07671021670103073
1685683424610448600,4.30744873046875,9.613093376159668,2.5177903175354004,-0.05890693888068199
1685683424630448600,4.32744873046875,9.737707138061523,2.586120843887329,-0.11946108937263489
1685683424650448600,4.34744873046875,9.672316551208496,2.7005064487457275,-0.23091596364974976
1685683424670448600,4.36744873046875,9.567354202270508,2.7934682369232178,-0.214922696352005
1685683424690448600,4.38744873046875,9.555489540100098,2.937187433242798,-0.19638200104236603
1685683424710448600,4.40744873046875,9.242547988891602,2.905334949493408,-0.1464676856994629
1685683424730448600,4.42744873046875,8.93216323852539,2.8404905796051025,0.012727576307952404
1685683424750448600,4.44744873046875,9.16891098022461,2.8458824157714844,0.24033953249454498
1685683424770448600,4.46744873046875,9.477208137512207,2.6553516387939453,0.2026452273130417
1685683424790448600,4.48744873046875,9.703719139099121,2.5766589641571045,0.19602766633033752
1685683424810448600,4.50744873046875,9.701132774353027,2.5064992904663086,-0.04352658987045288
1685683424830448600,4.52744873046875,9.883485794067383,2.5694189071655273,-0.284900426864624
1685683424850448600,4.54744873046875,9.790436744689941,2.647853136062622,-0.27263253927230835
1685683424870448600,4.56744873046875,9.475130081176758,2.8773610591888428,-0.2960669994354248
1685683424890448600,4.58744873046875,9.236763000488281,2.971510648727417,-0.113983154296875
1685683424910448600,4.60744873046875,9.460888862609863,2.9962668418884277,-0.04421611875295639
1685683424930448600,4.62744873046875,9.381536483764648,2.812870740890503,0.03427539020776749
1685683424950448600,4.64744873046875,9.21617317199707,2.8048934936523438,0.21391713619232178
1685683424970448600,4.66744873046875,9.158405303955078,2.5211708545684814,0.11294885724782944
1685683424990448600,4.68744873046875,9.760595321655273,2.332354784011841,-0.028797458857297897
1685683425010448600,4.70744873046875,10.167206764221191,2.2970547676086426,-0.34238043427467346
1685683425030448600,4.72744873046875,9.999124526977539,2.6633386611938477,-0.44394245743751526
1685683425050448600,4.74744873046875,9.434965133666992,3.093797206878662,-0.41580578684806824
1685683425070448600,4.76744873046875,9.06397819519043,3.135935068130493,-0.2571659982204437
1685683425090448600,4.78744873046875,9.079032897949219,2.9514377117156982,-0.1465538740158081
1685683425110448600,4.80744873046875,9.328996658325195,2.7606008052825928,-0.06957550346851349
1685683425130448600,4.82744873046875,9.823151588439941,2.674112558364868,0.12685438990592957
1685683425150448600,4.84744873046875,9.939949989318848,2.583707571029663,0.26646506786346436
1685683425170448600,4.86744873046875,9.569911003112793,2.6200802326202393,0.23275472223758698
1685683425190448600,4.88744873046875,9.338162422180176,2.5894248485565186,-0.039111677557229996
1685683425210448600,4.90744873046875,9.697379112243652,2.6313424110412598,-0.44571417570114136
1685683425230448600,4.92744873046875,10.016984939575195,2.8438806533813477,-0.5996900796890259
1685683425250448600,4.94744873046875,9.619912147521973,3.077526092529297,-0.47944366931915283
1685683425270448600,4.96744873046875,9.062302589416504,3.109799861907959,-0.12208513915538788
1685683425290448600,4.98744873046875,8.789966583251953,2.986795425415039,0.14075033366680145
1685683425310448600,5.00744873046875,8.930890083312988,2.764383554458618,0.16135962307453156
1685683425330448600,5.02744873046875,9.372620582580566,2.5012991428375244,0.2973406910896301
1685683425350448600,5.04744873046875,9.759005546569824,2.3495163917541504,0.14236880838871002
1685683425370448600,5.06744873046875,9.609597206115723,2.3272311687469482,0.27513208985328674
1685683425390448600,5.08744873046875,10.573809623718262,2.2544665336608887,-0.2814527750015259
1685683425410448600,5.10744873046875,9.67800521850586,2.6981215476989746,-0.2646358907222748
1685683425430448600,5.12744873046875,8.968717575073242,2.995443105697632,-0.5143128037452698
1685683425450448600,5.14744873046875,8.8147611618042,2.924325942993164,-0.3931279182434082
1685683425470448600,5.16744873046875,9.614031791687012,2.677483558654785,-0.1759163737297058
1685683425490448600,5.18744873046875,10.16020679473877,2.5944526195526123,-0.15462711453437805
1685683425510448600,5.20744873046875,9.751852035522461,2.605456590652466,0.15147635340690613
1685683425530448600,5.22744873046875,9.314095497131348,2.3652031421661377,0.40132564306259155
1685683425550448600,5.24744873046875,9.680648803710938,2.1664748191833496,0.1622023731470108
1685683425570448600,5.26744873046875,10.30213451385498,2.4307563304901123,-0.07523539662361145
1685683425590448600,5.28744873046875,9.77361011505127,2.754509925842285,-0.48686569929122925
1685683425610448600,5.30744873046875,9.513120651245117,3.050586462020874,-0.6421344876289368
1685683425630448600,5.32744873046875,9.400747299194336,3.0268168449401855,-0.3028952479362488
1685683425650448600,5.34744873046875,9.511186599731445,2.940328598022461,-0.07100244611501694
1685683425670448600,5.36744873046875,9.06064510345459,2.8253591060638428,0.3150290548801422
1685683425690448600,5.38744873046875,8.901287078857422,2.400484085083008,0.4933587610721588
1685683425710448600,5.40744873046875,9.512556076049805,2.1645596027374268,0.32402166724205017
1685683425730448600,5.42744873046875,10.050332069396973,2.3429465293884277,0.029735984280705452
1685683425750448600,5.44744873046875,9.86463737487793,2.532893180847168,-0.2757067084312439
1685683425770448600,5.46744873046875,9.557576179504395,2.7728686332702637,-0.2952146530151367
1685683425790448600,5.48744873046875,9.406607627868652,2.8921287059783936,-0.2031049132347107
1685683425810448600,5.50744873046875,9.087211608886719,2.8296303749084473,-0.014221558347344398
1685683425830448600,5.52744873046875,9.053424835205078,2.7101213932037354,0.2536800503730774
1685683425850448600,5.54744873046875,9.264745712280273,2.56504225730896,0.32351410388946533
1685683425870448600,5.56744873046875,9.59035873413086,2.502678155899048,0.37344756722450256
1685683425890448600,5.58744873046875,9.643998146057129,2.419857978820801,0.32624348998069763
1685683425910448600,5.60744873046875,9.531355857849121,2.3799514770507812,0.13868173956871033
1685683425930448600,5.62744873046875,9.7677583694458,2.35418963432312,-0.027753585949540138
1685683425950448600,5.64744873046875,9.976073265075684,2.441549301147461,-0.21324674785137177
1685683425970448600,5.66744873046875,9.88100528717041,2.7579383850097656,-0.1698925495147705
1685683425990448600,5.68744873046875,9.464125633239746,2.9389305114746094,-0.08487924188375473
1685683426010450200,5.7074501953125,9.396753311157227,2.7847437858581543,-0.13508085906505585
1685683426030448600,5.72744873046875,9.6459321975708,2.799013376235962,-0.05132210999727249
1685683426050448600,5.74744873046875,9.094250679016113,2.5448927879333496,0.3311085104942322
1685683426070448600,5.76744873046875,9.230165481567383,2.323840856552124,0.5007041692733765
1685683426090448600,5.78744873046875,9.839298248291016,2.127995014190674,0.1634090542793274
1685683426110448600,5.80744873046875,10.209067344665527,2.4663820266723633,-0.12313857674598694
1685683426130448600,5.82744873046875,10.122627258300781,2.9166836738586426,-0.20205146074295044
1685683426150448600,5.84744873046875,9.70300006866455,2.6932854652404785,-0.021720197051763535
1685683426170448600,5.86744873046875,9.376564979553223,3.077401638031006,-0.2959616482257843
1685683426190450200,5.8874501953125,8.810135841369629,3.16988468170166,-0.2740594744682312
1685683426210450200,5.9074501953125,8.81131362915039,2.8893609046936035,0.22282356023788452
1685683426230448600,5.92744873046875,9.369622230529785,2.094907283782959,0.48161762952804565
1685683426250448600,5.94744873046875,9.798442840576172,2.0551347732543945,0.3753054738044739
1685683426270448600,5.96744873046875,9.880525588989258,2.2197697162628174,-0.02886449545621872
1685683426290448600,5.98744873046875,9.882067680358887,2.556978702545166,-0.17206647992134094
1685683426310448600,6.00744873046875,9.909955024719238,2.482863664627075,0.23866359889507294
1685683426330448600,6.02744873046875,9.777039527893066,2.7230021953582764,-0.24512794613838196
1685683426350448600,6.04744873046875,8.663878440856934,2.601750135421753,0.2284451425075531
1685683426370448600,6.06744873046875,8.79708194732666,2.536283254623413,0.3193865120410919
1685683426390448600,6.08744873046875,9.433450698852539,2.3844428062438965,0.15677233040332794
1685683426410448600,6.10744873046875,9.937910079956055,2.3325366973876953,0.20457974076271057
1685683426430448600,6.12744873046875,10.004247665405273,2.3775954246520996,0.012823344208300114
1685683426450448600,6.14744873046875,9.926312446594238,2.58514404296875,-0.09291417896747589
1685683426470448600,6.16744873046875,9.75405502319336,2.7250421047210693,-0.11144530028104782
1685683426490448600,6.18744873046875,9.633281707763672,2.666020154953003,-0.001915361382998526
1685683426510448600,6.20744873046875,9.248533248901367,2.600677728652954,0.1655542552471161
1685683426530448600,6.22744873046875,9.094614028930664,2.3787543773651123,0.256763756275177
1685683426550448600,6.24744873046875,9.439083099365234,2.3880820274353027,0.07935342192649841
1685683426570448600,6.26744873046875,9.640923500061035,2.4986846446990967,-0.13812628388404846
1685683426590448600,6.28744873046875,9.943215370178223,2.6093733310699463,-0.007201758679002523
1685683426610448600,6.30744873046875,9.7689847946167,2.4904582500457764,0.0959787592291832
1685683426630450200,6.3274501953125,9.400440216064453,2.5252602100372314,0.320028156042099
1685683426650450200,6.3474501953125,8.957398414611816,2.4983973503112793,0.39228516817092896
1685683426670448600,6.36744873046875,9.373567581176758,2.4235546588897705,0.28863537311553955
1685683426690448600,6.38744873046875,9.890915870666504,2.3802099227905273,0.09184157848358154
1685683426710448600,6.40744873046875,9.803135871887207,2.498493194580078,0.06635769456624985
1685683426730448600,6.42744873046875,9.47761058807373,2.5249922275543213,0.0028060043696314096
1685683426750448600,6.44744873046875,9.644619941711426,2.5549769401550293,0.20514477789402008
1685683426770448600,6.46744873046875,9.705461502075195,2.4210453033447266,0.175494983792305
1685683426790448600,6.48744873046875,9.689582824707031,2.3691585063934326,0.1985846757888794
1685683426810448600,6.50744873046875,9.93069839477539,2.3923916816711426,0.034179624170064926
1685683426830448600,6.52744873046875,9.694380760192871,2.5555996894836426,0.04509718343615532
1685683426850448600,6.54744873046875,9.395383834838867,2.6733081340789795,0.14676456153392792
1685683426870448600,6.56744873046875,9.03406047821045,2.489060163497925,0.24494598805904388
1685683426890448600,6.58744873046875,9.173919677734375,2.2696073055267334,0.2478669136762619
1685683426910448600,6.60744873046875,9.794305801391602,2.187821626663208,0.06853163242340088
1685683426930448600,6.62744873046875,9.926531791687012,2.2612662315368652,-0.07087794691324234
1685683426950448600,6.64744873046875,9.781980514526367,2.3678464889526367,-0.07882669568061829
1685683426970448600,6.66744873046875,9.656399726867676,2.471515417098999,0.07743805646896362
1685683426990448600,6.68744873046875,9.15451717376709,2.466219186782837,0.16462530195713043
1685683427010448600,6.70744873046875,9.136235237121582,2.3549177646636963,0.1971289962530136
1685683427030448600,6.72744873046875,9.56432819366455,2.263200521469116,0.30395829677581787
1685683427050450200,6.7474501953125,9.679479598999023,2.2786288261413574,0.2675759792327881
1685683427070448600,6.76744873046875,9.491716384887695,2.2711684703826904,0.16135962307453156
1685683427090448600,6.78744873046875,9.632380485534668,2.134047746658325,-0.007833828218281269
1685683427110448600,6.80744873046875,9.746220588684082,2.2800655364990234,0.015840038657188416
1685683427130448600,6.82744873046875,9.572324752807617,2.2727389335632324,-0.04492479935288429
1685683427150448600,6.84744873046875,9.582792282104492,2.139927864074707,-0.03280056267976761
1685683427170448600,6.86744873046875,9.597501754760742,2.1923322677612305,0.19957107305526733
1685683427190448600,6.88744873046875,9.467774391174316,2.315757989883423,0.25367045402526855
1685683427210448600,6.90744873046875,9.5783109664917,2.2715611457824707,0.1308383345603943
1685683427230448600,6.92744873046875,9.966832160949707,2.389346122741699,-0.4886948764324188
1685683427250448600,6.94744873046875,10.2850980758667,2.690919876098633,-0.4815218448638916
1685683427270448600,6.96744873046875,9.734182357788086,2.963906764984131,0.0027772739995270967
1685683427290448600,6.98744873046875,9.07918643951416,2.701530933380127,0.7578510046005249
1685683427310448600,7.00744873046875,8.770343780517578,2.0342860221862793,0.810006320476532
1685683427330448600,7.02744873046875,9.608190536499023,1.5774821043014526,0.5591035485267639
1685683427350448600,7.04744873046875,10.526423454284668,1.8344565629959106,-0.02438254840672016
1685683427370448600,7.06744873046875,9.142125129699707,2.2308595180511475,-0.14486835896968842
1685683427390448600,7.08744873046875,9.045677185058594,2.5472583770751953,-0.2601635456085205
1685683427410448600,7.10744873046875,10.381852149963379,2.5222628116607666,-0.1333187222480774
1685683427430448600,7.12744873046875,10.370063781738281,2.415787935256958,-0.0893324539065361
1685683427450448600,7.14744873046875,9.435318946838379,2.3128371238708496,0.11938447505235672
1685683427470448600,7.16744873046875,8.995475769042969,2.1128926277160645,0.1251114010810852
1685683427490448600,7.18744873046875,10.41698932647705,2.3841075897216797,-0.35823962092399597
1685683427510448600,7.20744873046875,9.764971733093262,2.776153564453125,-0.39599138498306274
1685683427530448600,7.22744873046875,8.921445846557617,3.1120121479034424,-0.5428230166435242
1685683427550448600,7.24744873046875,10.273164749145508,3.349057197570801,0.15573804080486298
1685683427570448600,7.26744873046875,9.934538841247559,2.7757418155670166,0.04450342059135437
1685683427590448600,7.28744873046875,9.462737083435059,2.9035346508026123,0.2229672074317932
1685683427610448600,7.30744873046875,8.648383140563965,2.679035186767578,0.2176329344511032
1685683427630448600,7.32744873046875,9.417027473449707,2.515329122543335,0.2197589874267578
1685683427650448600,7.34744873046875,9.13047981262207,2.338052988052368,0.040960002690553665
1685683427670448600,7.36744873046875,8.858135223388672,2.313947916030884,0.043679818511009216
1685683427690448600,7.38744873046875,9.544475555419922,2.447563648223877,-0.015677232295274734
1685683427710448600,7.40744873046875,9.89113712310791,2.6327216625213623,-0.4858314096927643
1685683427730448600,7.42744873046875,9.450057983398438,2.9318532943725586,-0.16843686997890472
1685683427750448600,7.44744873046875,9.330979347229004,2.7486679553985596,0.13237062096595764
1685683427770448600,7.46744873046875,10.17759895324707,2.525346517562866,0.3429262936115265
1685683427790448600,7.48744873046875,10.032175064086914,2.413891553878784,0.29851865768432617
1685683427810448600,7.50744873046875,9.249634742736816,2.5723876953125,0.39432501792907715
1685683427830448600,7.52744873046875,8.869234085083008,2.613070011138916,0.5109896659851074
1685683427850448600,7.54744873046875,9.266509056091309,2.321542501449585,0.5018150806427002
1685683427870448600,7.56744873046875,9.69631576538086,2.1129310131073,0.28551334142684937
1685683427890448600,7.58744873046875,10.211605072021484,2.293271780014038,0.006483498029410839
1685683427910448600,7.60744873046875,10.369929313659668,2.54937481880188,-0.15730862319469452
1685683427930448600,7.62744873046875,10.254021644592285,2.7828187942504883,-0.3065440058708191
1685683427950448600,7.64744873046875,9.613486289978027,2.719248056411743,-0.13782940804958344
1685683427970448600,7.66744873046875,8.877710342407227,2.4648211002349854,0.05357265844941139
1685683427990448600,7.68744873046875,8.973065376281738,2.400273323059082,0.3779391050338745
1685683428010448600,7.70744873046875,8.735675811767578,2.0899369716644287,0.1608712077140808
1685683428030448600,7.72744873046875,9.255074501037598,2.1911542415618896,0.19484013319015503
1685683428050448600,7.74744873046875,9.607748985290527,2.1569554805755615,-0.0862487182021141
1685683428070448600,7.76744873046875,10.172330856323242,2.281846761703491,-0.2793267071247101
1685683428090448600,7.78744873046875,10.06803035736084,2.2970354557037354,-0.28631776571273804
1685683428110448600,7.80744873046875,10.224026679992676,2.7101407051086426,-0.23619277775287628
1685683428130448600,7.82744873046875,9.748250961303711,2.806483268737793,0.00703895278275013
1685683428150448600,7.84744873046875,9.189836502075195,2.729217529296875,0.1410950869321823
1685683428170448600,7.86744873046875,9.323375701904297,2.6302988529205322,0.49755340814590454
1685683428190448600,7.88744873046875,9.27880573272705,2.4951794147491455,0.3533937335014343
1685683428210448600,7.90744873046875,9.637983322143555,2.42034649848938,0.4352371394634247
1685683428230448600,7.92744873046875,9.838866233825684,2.4431679248809814,0.20219512283802032
1685683428250448600,7.94744873046875,9.913948059082031,2.462963104248047,-0.05907932296395302
1685683428270448600,7.96744873046875,9.874932289123535,2.594280242919922,0.10671435296535492
1685683428290448600,7.98744873046875,9.676377296447754,2.9549334049224854,-0.4611232578754425
1685683428310448600,8.00744873046875,8.632207870483398,2.983070135116577,0.6732303500175476
1685683428330448600,8.02744873046875,9.177799224853516,2.6660969257354736,0.0334039032459259
1685683428350448600,8.04744873046875,9.504654884338379,2.4959075450897217,-0.030674513429403305
1685683428370448600,8.06744873046875,9.433337211608887,2.3698384761810303,0.2560742497444153
1685683428390448600,8.08744873046875,9.52324390411377,2.517148733139038,0.249427929520607
1685683428410448600,8.10744873046875,9.266719818115234,2.3679516315460205,0.12022723257541656
1685683428430448600,8.12744873046875,9.391237258911133,2.3912901878356934,0.24087584018707275
1685683428450448600,8.14744873046875,9.381439208984375,2.29374098777771,0.08200619369745255
1685683428470448600,8.16744873046875,9.69920825958252,2.5564517974853516,-0.06870400905609131
1685683428490448600,8.18744873046875,9.028669357299805,2.6279428005218506,-0.1294018030166626
1685683428510448600,8.20744873046875,9.49450397491455,2.8595290184020996,-0.09281840920448303
1685683428530448600,8.22744873046875,9.00735092163086,2.4404962062835693,0.4139670431613922
1685683428550448600,8.24744873046875,10.204106330871582,2.526878595352173,0.39701610803604126
1685683428570448600,8.26744873046875,10.315255165100098,2.1491024494171143,0.3506739139556885
1685683428590448600,8.28744873046875,10.021343231201172,2.2266170978546143,0.7927297353744507
1685683428610448600,8.30744873046875,10.131476402282715,2.3691296577453613,0.667015016078949
1685683428630448600,8.32744873046875,9.627487182617188,2.6583778858184814,0.32905909419059753
1685683428650448600,8.34744873046875,9.60533618927002,2.8973193168640137,0.15921442210674286
1685683428670448600,8.36744873046875,9.339072227478027,2.8251771926879883,0.10857225954532623
1685683428690448600,8.38744873046875,10.249002456665039,2.905880928039551,-0.19582654535770416
1685683428710448600,8.40744873046875,9.625667572021484,2.870379686355591,0.24560678005218506
1685683428730448600,8.42744873046875,8.863966941833496,2.8399157524108887,0.0700351893901825
1685683428750448600,8.44744873046875,8.400066375732422,2.760878324508667,-0.1628248691558838
1685683428770448600,8.46744873046875,9.47586727142334,2.2738499641418457,0.11438538134098053
1685683428790448600,8.48744873046875,10.128488540649414,2.2822582721710205,0.2528277039527893
1685683428810448600,8.50744873046875,8.404041290283203,2.7761919498443604,0.747546374797821
1685683428830448600,8.52744873046875,8.748518943786621,3.1352357864379883,0.6358999609947205
1685683428850448600,8.54744873046875,9.63306999206543,3.055135488510132,-0.5972000956535339
1685683428870448600,8.56744873046875,10.293228149414062,2.8716726303100586,-1.395848274230957
1685683428890448600,8.58744873046875,9.627382278442383,2.4516241550445557,-0.20825724303722382
1685683428910448600,8.60744873046875,10.028152465820312,2.6010799407958984,0.02127966471016407
1685683428930448600,8.62744873046875,10.441391944885254,2.770953416824341,-0.16044981777668
1685683428950448600,8.64744873046875,8.86050033569336,2.8684165477752686,0.03646847978234291
1685683428970448600,8.66744873046875,8.962876319885254,3.2103660106658936,0.26125529408454895
1685683428990448600,8.68744873046875,8.872231483459473,3.153738260269165,0.2042732834815979
1685683429010448600,8.70744873046875,9.242547988891602,3.012183427810669,0.32047826051712036
1685683429030448600,8.72744873046875,9.552519798278809,2.817668914794922,0.07037995010614395
1685683429050448600,8.74744873046875,9.143321990966797,2.8957104682922363,0.6774441599845886
1685683429070448600,8.76744873046875,9.36750602722168,2.9902334213256836,0.6879403591156006
1685683429090448600,8.78744873046875,9.536603927612305,2.8785006999969482,0.2990932762622833
1685683429110448600,8.80744873046875,9.669740676879883,2.9434890747070312,0.17385734617710114
1685683429130448600,8.82744873046875,9.485079765319824,2.9880306720733643,0.3872669041156769
1685683429150448600,8.84744873046875,9.208051681518555,3.0781867504119873,0.7483603954315186
1685683429170448600,8.86744873046875,8.931760787963867,2.9004509449005127,0.6442892551422119
1685683429190448600,8.88744873046875,8.9866361618042,2.913628578186035,0.4109886884689331
1685683429210448600,8.90744873046875,9.561924934387207,2.8054873943328857,0.3666672110557556
1685683429230448600,8.92744873046875,9.464604377746582,3.0791828632354736,0.1142129972577095
1685683429250448600,8.94744873046875,8.808938026428223,3.2978787422180176,0.2027122676372528
1685683429270448600,8.96744873046875,9.06234073638916,3.055748224258423,0.2773251533508301
1685683429290448600,8.98744873046875,9.179512977600098,2.7332396507263184,0.7647941708564758
1685683429310448600,9.00744873046875,9.742389678955078,2.6553516387939453,0.708817720413208
1685683429330448600,9.02744873046875,10.553584098815918,2.731889486312866,0.39603927731513977
1685683429350448600,9.04744873046875,10.203091621398926,2.7330005168914795,0.2427624762058258
1685683429370448600,9.06744873046875,9.733253479003906,3.146613121032715,0.8348581790924072
1685683429390448600,9.08744873046875,9.521903038024902,2.4699063301086426,0.23361662030220032
1685683429410448600,9.10744873046875,9.85859489440918,2.2591495513916016,0.1083136796951294
1685683429430448600,9.12744873046875,9.504358291625977,2.368018865585327,0.2862890660762787
1685683429450448600,9.14744873046875,9.398621559143066,2.6753861904144287,0.6432836651802063
1685683429470448600,9.16744873046875,8.685464859008789,2.621133804321289,0.5486265420913696
1685683429490448600,9.18744873046875,9.646114349365234,2.565147638320923,0.8443104028701782
1685683429510448600,9.20744873046875,10.144174575805664,2.5145151615142822,0.48348507285118103
1685683429530448600,9.22744873046875,10.028678894042969,2.1145970821380615,0.5908219814300537
1685683429550448600,9.24744873046875,9.494982719421387,2.4905827045440674,0.3719823360443115
1685683429570448600,9.26744873046875,9.347212791442871,2.8503928184509277,0.2862316071987152
1685683429590448600,9.28744873046875,8.572698593139648,2.7811429500579834,-0.048851292580366135
1685683429610450200,9.3074501953125,9.193082809448242,2.6247057914733887,-0.2823913097381592
1685683429630448600,9.32744873046875,8.183381080627441,2.9029600620269775,0.5419323444366455
1685683429650448600,9.34744873046875,9.810978889465332,3.270594596862793,0.437966525554657
1685683429670448600,9.36744873046875,9.61219310760498,2.980771541595459,0.7315818667411804
1685683429690448600,9.38744873046875,10.320550918579102,2.539060592651367,0.5263029932975769
1685683429710448600,9.40744873046875,10.266844749450684,2.681898355484009,0.5635951161384583
1685683429730448600,9.42744873046875,10.4619140625,2.887752056121826,0.3634972870349884
1685683429750448600,9.44744873046875,10.101471900939941,2.7214889526367188,0.34116414189338684
1685683429770448600,9.46744873046875,9.87243366241455,2.7306251525878906,0.5741965770721436
1685683429790448600,9.48744873046875,10.011200904846191,2.2978971004486084,0.48176124691963196
1685683429810448600,9.50744873046875,10.275588035583496,1.9775243997573853,0.4239460825920105
1685683429830448600,9.52744873046875,9.495978355407715,2.056523323059082,0.047759536653757095
1685683429850448600,9.54744873046875,9.081915855407715,2.4253549575805664,-0.015026009641587734
1685683429870448600,9.56744873046875,8.936701774597168,2.7223222255706787,0.6976416707038879
1685683429890448600,9.58744873046875,9.727631568908691,2.9690208435058594,0.5261114239692688
1685683429910448600,9.60744873046875,9.105915069580078,2.8367555141448975,0.2648657560348511
1685683429930448600,9.62744873046875,8.86539363861084,2.6776177883148193,0.33579155802726746
1685683429950448600,9.64744873046875,9.478156089782715,2.917593240737915,0.07834785431623459
1685683429970448600,9.66744873046875,9.827154159545898,2.5689401626586914,0.43252691626548767
1685683429990448600,9.68744873046875,9.56766128540039,2.4427273273468018,0.6059724688529968
1685683430010450200,9.7074501953125,9.407929420471191,2.4311587810516357,-0.1524723321199417
1685683430030450200,9.7274501953125,9.757061958312988,2.21921443939209,0.08769481629133224
1685683430050448600,9.74744873046875,9.868544578552246,2.1752662658691406,0.5646293759346008
1685683430070448600,9.76744873046875,8.476823806762695,1.6520661115646362,0.3757077157497406
1685683430090448600,9.78744873046875,9.402729034423828,2.052788496017456,0.4470740556716919
1685683430110448600,9.80744873046875,9.485032081604004,2.9561398029327393,0.16476896405220032
1685683430130448600,9.82744873046875,9.453581809997559,3.3108267784118652,0.2677292227745056
1685683430150448600,9.84744873046875,9.4237699508667,3.0391900539398193,0.2693668603897095
1685683430170448600,9.86744873046875,9.138102531433105,2.838144063949585,0.19067423045635223
1685683430190448600,9.88744873046875,9.360074043273926,2.725587844848633,0.7396838665008545
1685683430210448600,9.90744873046875,9.347518920898438,2.6732029914855957,0.3657286763191223
1685683430230448600,9.92744873046875,9.105944633483887,2.649749279022217,0.6085677742958069
1685683430250448600,9.94744873046875,9.30945110321045,2.8154280185699463,0.8637321591377258
1685683430270448600,9.96744873046875,9.705011367797852,3.0211760997772217,0.7277894020080566
1685683430290448600,9.98744873046875,9.347336769104004,2.877983570098877,0.12221920490264893
1685683430310448600,10.00744873046875,8.860998153686523,2.826220989227295,0.8219964504241943
1685683430330448600,10.02744873046875,9.2595853805542,3.0989012718200684,0.6701849102973938
1685683430350448600,10.04744873046875,9.733903884887695,2.726698875427246,0.3698371350765228
1685683430370448600,10.06744873046875,8.901832580566406,2.826709508895874,-0.20514477789402008
1685683430390448600,10.08744873046875,8.85513687133789,2.9261741638183594,0.23164379596710205
1685683430410448600,10.10744873046875,9.434447288513184,3.277815341949463,0.883728563785553
1685683430430448600,10.12744873046875,9.6632661819458,2.4070632457733154,1.0069820880889893
1685683430450448600,10.14744873046875,9.649810791015625,2.446826219558716,0.1685996800661087
1685683430470448600,10.16744873046875,8.871465682983398,2.186768054962158,-0.23214179277420044
1685683430490448600,10.18744873046875,8.985621452331543,2.3273937702178955,0.017238251864910126
1685683430510448600,10.20744873046875,9.370014190673828,2.3383498191833496,-1.1364222764968872
1685683430530448600,10.22744873046875,10.189425468444824,3.5482356548309326,-0.6781336665153503
1685683430550448600,10.24744873046875,9.97043228149414,2.7988505363464355,0.5359851717948914
1685683430570448600,10.26744873046875,10.683292388916016,2.127506732940674,0.7204536199569702
1685683430590448600,10.28744873046875,10.184426307678223,1.7548540830612183,0.45323196053504944
1685683430610448600,10.30744873046875,9.99852180480957,2.2862040996551514,0.3334644138813019
1685683430630450200,10.3274501953125,9.608821868896484,3.0220859050750732,0.2963830232620239
1685683430650448600,10.34744873046875,8.91749095916748,3.111609935760498,0.3607008457183838
1685683430670448600,10.36744873046875,9.590147018432617,2.896505117416382,0.2650381028652191
1685683430690448600,10.38744873046875,8.834087371826172,2.5467793941497803,0.3748553693294525
1685683430710448600,10.40744873046875,9.479630470275879,2.9846980571746826,3.01446270942688
1685683430730448600,10.42744873046875,9.331037521362305,1.3688130378723145,0.2379453480243683
1685683430750448600,10.44744873046875,10.680217742919922,1.7537527084350586,-0.40064573287963867
1685683430770448600,10.46744873046875,9.479496955871582,1.9949637651443481,0.029065608978271484
1685683430790448600,10.48744873046875,9.540443420410156,1.595572590827942,-0.34704431891441345
1685683430810448600,10.50744873046875,9.71320915222168,1.4303057193756104,-0.33394327759742737
1685683430830448600,10.52744873046875,10.171996116638184,2.2534897327423096,-0.1375516802072525
1685683430850448600,10.54744873046875,9.687074661254883,2.3042945861816406,0.12484325468540192
1685683430870448600,10.56744873046875,9.937220573425293,2.2030580043792725,0.3016693890094757
1685683430890448600,10.58744873046875,10.145467758178711,1.9050471782684326,0.722206175327301
1685683430910448600,10.60744873046875,10.823305130004883,1.6708749532699585,0.621879518032074
1685683430930448600,10.62744873046875,9.793107986450195,2.276771068572998,0.31897470355033875
1685683430950448600,10.64744873046875,9.426325798034668,2.568557024002075,0.5459163188934326
1685683430970448600,10.66744873046875,8.820324897766113,2.7068941593170166,0.2987293303012848
1685683430990448600,10.68744873046875,9.103904724121094,2.2724132537841797,0.5661808252334595
1685683431010448600,10.70744873046875,9.441314697265625,1.6366379261016846,0.6558005809783936
1685683431030448600,10.72744873046875,9.623743057250977,2.445159912109375,0.5869433879852295
1685683431050448600,10.74744873046875,8.957962989807129,2.4363110065460205,-0.20989488065242767
1685683431070448600,10.76744873046875,9.144730567932129,2.2976865768432617,-0.20280803740024567
1685683431090448600,10.78744873046875,9.307401657104492,2.2807836532592773,-0.523037314414978
1685683431110448600,10.80744873046875,9.310321807861328,2.171358823776245,0.06210559234023094
1685683431130450200,10.8274501953125,9.573694229125977,1.9079010486602783,0.4827955663204193
1685683431150448600,10.84744873046875,9.98189640045166,2.306851625442505,1.109971046447754
1685683431170448600,10.86744873046875,9.469459533691406,2.985358953475952,-0.030655359849333763
1685683431190448600,10.88744873046875,9.62320613861084,3.0702285766601562,1.3921420574188232
1685683431210448600,10.90744873046875,9.306079864501953,2.830195426940918,0.39719805121421814
1685683431230448600,10.92744873046875,9.851929664611816,2.8716437816619873,0.30190885066986084
1685683431250448600,10.94744873046875,9.401589393615723,2.009577989578247,-0.022716186940670013
1685683431270448600,10.96744873046875,9.262639999389648,1.4291468858718872,1.0393133163452148
1685683431290448600,10.98744873046875,10.00336742401123,1.4000812768936157,0.057001154869794846
1685683431310448600,11.00744873046875,10.257516860961914,2.4470083713531494,1.0548949241638184
1685683431330448600,11.02744873046875,8.86703109741211,1.9274568557739258,0.23876895010471344
1685683431350448600,11.04744873046875,6.94664192199707,2.129106283187866,-0.10043197870254517
1685683431370448600,11.06744873046875,11.05239200592041,2.072880506515503,-0.9065405130386353
1685683431390448600,11.08744873046875,9.263655662536621,1.1680448055267334,-2.188807964324951
1685683431410448600,11.10744873046875,8.11132526397705,1.2151530981063843,2.6215453147888184
1685683431430448600,11.12744873046875,7.802109241485596,1.8796206712722778,-4.070554733276367
1685683431450448600,11.14744873046875,12.759218215942383,0.7452574968338013,-1.3596097230911255
1685683431470448600,11.16744873046875,10.320205688476562,1.4598308801651,0.5458971261978149
1685683431490448600,11.18744873046875,9.332100868225098,1.4608079195022583,-0.60163414478302
1685683431510448600,11.20744873046875,9.275079727172852,1.4253640174865723,-0.11704772710800171
1685683431530448600,11.22744873046875,9.695769309997559,1.3754783868789673,-0.03787627071142197
1685683431550448600,11.24744873046875,9.922405242919922,1.4784674644470215,0.8001709580421448
1685683431570448600,11.26744873046875,9.118086814880371,1.5324805974960327,0.23786872625350952
1685683431590448600,11.28744873046875,8.728732109069824,1.3617931604385376,-0.025981876999139786
1685683431610448600,11.30744873046875,8.716646194458008,1.0185604095458984,-0.1631408929824829
1685683431630448600,11.32744873046875,9.353206634521484,1.0211845636367798,-0.26040294766426086
1685683431650450200,11.3474501953125,10.605058670043945,0.9063585996627808,0.2180064171552658
1685683431670448600,11.36744873046875,9.223451614379883,1.3560662269592285,-0.16570748388767242
1685683431690448600,11.38744873046875,10.222139358520508,1.4707485437393188,0.2090904265642166
1685683431710448600,11.40744873046875,9.786605834960938,1.2223740816116333,0.39745664596557617
1685683431730448600,11.42744873046875,9.726243019104004,0.5346156358718872,-0.14055879414081573
1685683431750448600,11.44744873046875,9.21224594116211,0.746550440788269,-0.2607285678386688
1685683431770448600,11.46744873046875,9.094460487365723,0.80351322889328,-0.5665159821510315
1685683431790448600,11.48744873046875,9.454117774963379,1.1003559827804565,0.09154469519853592
1685683431810450200,11.5074501953125,9.31298542022705,1.1147977113723755,-0.02459324151277542
1685683431830450200,11.5274501953125,9.307889938354492,1.5547083616256714,0.5123304724693298
1685683431850448600,11.54744873046875,9.130249977111816,1.420700192451477,-0.3304477334022522
1685683431870448600,11.56744873046875,9.05139446258545,1.315853238105774,-0.2730635106563568
1685683431890448600,11.58744873046875,11.953750610351562,1.1451467275619507,1.1680160760879517
1685683431910448600,11.60744873046875,11.337377548217773,2.15687894821167,1.305701732635498
1685683431930448600,11.62744873046875,9.93784236907959,1.279997706413269,0.9502490758895874
1685683431950448600,11.64744873046875,9.222905158996582,1.1553651094436646,-0.35252225399017334
1685683431970448600,11.66744873046875,8.87885856628418,1.201879620552063,-0.3143395483493805
1685683431990448600,11.68744873046875,9.209172248840332,0.9389101266860962,-0.02284068427979946
1685683432010448600,11.70744873046875,10.018192291259766,1.2693195343017578,0.1054597944021225
1685683432030448600,11.72744873046875,9.845914840698242,1.0843722820281982,0.11189541220664978
1685683432050448600,11.74744873046875,9.592389106750488,1.250797986984253,-0.36994248628616333
1685683432070450200,11.7674501953125,9.469939231872559,1.3744728565216064,0.18613481521606445
1685683432090448600,11.78744873046875,9.59992504119873,1.355884313583374,0.2246718853712082
1685683432110448600,11.80744873046875,10.238593101501465,1.373936653137207,0.7388410568237305
1685683432130448600,11.82744873046875,10.35360050201416,1.5103199481964111,0.4140532612800598
1685683432150448600,11.84744873046875,9.82872486114502,1.0446956157684326,0.11733503639698029
1685683432170448600,11.86744873046875,9.894047737121582,0.736293613910675,-0.10238564014434814
1685683432190448600,11.88744873046875,10.025096893310547,0.8042027354240417,-0.07627926766872406
1685683432210448600,11.90744873046875,10.765192031860352,0.4696466028690338,-0.0688476637005806
1685683432230448600,11.92744873046875,9.996184349060059,0.17030435800552368,-0.06566816568374634
1685683432250448600,11.94744873046875,9.015146255493164,1.6967132091522217,0.5078772306442261
1685683432270448600,11.96744873046875,9.506982803344727,2.166043996810913,0.11978669464588165
1685683432290448600,11.98744873046875,9.876953125,1.631447434425354,0.08738835901021957
1685683432310448600,12.00744873046875,9.00198745727539,1.9744981527328491,-0.11586979031562805
1685683432330448600,12.02744873046875,9.131667137145996,1.9482002258300781,-0.7966370582580566
1685683432350448600,12.04744873046875,9.508419036865234,1.5352866649627686,-1.39181649684906
1685683432370448600,12.06744873046875,10.082117080688477,1.2396409511566162,-1.1426087617874146
1685683432390448600,12.08744873046875,9.828553199768066,1.2928880453109741,-1.1281286478042603
1685683432410448600,12.10744873046875,10.046980857849121,1.5018444061279297,-1.1641279458999634
1685683432430448600,12.12744873046875,9.455632209777832,1.6501412391662598,-0.8126495480537415
1685683432450448600,12.14744873046875,9.1832857131958,1.6845507621765137,-0.5020449757575989
1685683432470448600,12.16744873046875,9.141454696655273,1.7393970489501953,-0.45017698407173157
1685683432490448600,12.18744873046875,9.279025077819824,2.2213785648345947,-0.6591237187385559
1685683432510448600,12.20744873046875,9.697293281555176,1.8549988269805908,-0.7156652212142944
1685683432530448600,12.22744873046875,9.177109718322754,1.686226725578308,-1.1284064054489136
1685683432550448600,12.24744873046875,9.742514610290527,1.524627685546875,-1.1144243478775024
1685683432570448600,12.26744873046875,9.693031311035156,1.5209693908691406,-0.5620532035827637
1685683432590448600,12.28744873046875,9.771454811096191,2.1492555141448975,-0.1812506467103958
1685683432610450200,12.3074501953125,9.881875991821289,2.370144844055176,-0.08869080990552902
1685683432630448600,12.32744873046875,10.234484672546387,2.214780330657959,-0.210919588804245
1685683432650448600,12.34744873046875,8.948098182678223,1.8718634843826294,-0.8414948582649231
1685683432670448600,12.36744873046875,9.211289405822754,2.1240017414093018,-0.44060975313186646
1685683432690448600,12.38744873046875,10.07651424407959,1.8644702434539795,-0.4035474956035614
1685683432710448600,12.40744873046875,10.246723175048828,1.710168719291687,-0.3764738440513611
1685683432730448600,12.42744873046875,10.039003372192383,1.698197603225708,-0.337783545255661
1685683432750448600,12.44744873046875,9.611790657043457,1.4883793592453003,-0.7992516160011292
1685683432770448600,12.46744873046875,9.203128814697266,1.5701271295547485,-0.879189133644104
1685683432790448600,12.48744873046875,9.442185401916504,1.461746335029602,-0.8965519666671753
1685683432810448600,12.50744873046875,9.831770896911621,1.364197015762329,-0.6416844129562378
1685683432830448600,12.52744873046875,8.529458045959473,0.7078505158424377,-1.054444670677185
1685683432850448600,12.54744873046875,9.243753433227539,1.46347975730896,-0.4121570289134979
1685683432870448600,12.56744873046875,9.3898286819458,1.4027436971664429,-0.18556977808475494
1685683432890448600,12.58744873046875,9.744832038879395,1.7017602920532227,-0.1263180822134018
1685683432910448600,12.60744873046875,9.865030288696289,1.3127217292785645,-0.343903124332428
1685683432930448600,12.62744873046875,9.937028884887695,1.5029075145721436,0.03332728520035744
1685683432950448600,12.64744873046875,9.472428321838379,1.2241649627685547,-0.24298274517059326
1685683432970448600,12.66744873046875,9.859112739562988,1.6917716264724731,-0.24473528563976288
1685683432990448600,12.68744873046875,10.05923843383789,1.5788993835449219,-0.13962027430534363
1685683433010448600,12.70744873046875,9.734919548034668,1.5239956378936768,-0.30667805671691895
1685683433030448600,12.72744873046875,9.217350959777832,1.1935765743255615,-0.497275710105896
1685683433050448600,12.74744873046875,9.417688369750977,1.3085652589797974,-0.24213039875030518
1685683433070448600,12.76744873046875,9.474296569824219,1.3378798961639404,-0.4056544005870819
1685683433090448600,12.78744873046875,9.986052513122559,0.9982384443283081,-1.09456205368042
1685683433110448600,12.80744873046875,8.705059051513672,1.7244764566421509,1.0277446508407593
1685683433130448600,12.82744873046875,9.623052597045898,1.890059471130371,-0.6546130180358887
1685683433150448600,12.84744873046875,9.326699256896973,1.4361666440963745,-0.24770410358905792
1685683433170448600,12.86744873046875,10.03161907196045,1.7718623876571655,-0.10027875006198883
1685683433190448600,12.88744873046875,9.891912460327148,1.579646348953247,-0.06851247698068619
1685683433210448600,12.90744873046875,10.737879753112793,1.4868663549423218,0.8012147545814514
1685683433230448600,12.92744873046875,9.866514205932617,1.7618643045425415,0.06222051382064819
1685683433250448600,12.94744873046875,9.786280632019043,1.8182237148284912,-0.09630436450242996
1685683433270448600,12.96744873046875,9.547281265258789,1.5121395587921143,-0.3442000150680542
1685683433290448600,12.98744873046875,9.52409553527832,1.442171335220337,-0.5489042401313782
1685683433310448600,13.00744873046875,9.732142448425293,1.3874685764312744,-0.5748574137687683
1685683433330448600,13.02744873046875,10.100064277648926,1.483935832977295,-0.5211123824119568
1685683433350448600,13.04744873046875,10.163923263549805,1.4379287958145142,-0.5507238507270813
1685683433370448600,13.06744873046875,10.103215217590332,1.5431396961212158,-0.3616776764392853
1685683433390448600,13.08744873046875,9.998579025268555,1.491712212562561,-0.34000536799430847
1685683433410448600,13.10744873046875,9.755375862121582,1.4047547578811646,-0.28028440475463867
1685683433430448600,13.12744873046875,9.538259506225586,1.2890573740005493,-0.4650401473045349
1685683433450448600,13.14744873046875,9.182204246520996,1.191718578338623,-0.5669181942939758
1685683433470448600,13.16744873046875,9.402901649475098,1.3570144176483154,-0.6386581063270569
1685683433490448600,13.18744873046875,9.370052337646484,1.2505489587783813,-0.5105108618736267
1685683433510448600,13.20744873046875,9.470398902893066,1.4652706384658813,-0.44660478830337524
1685683433530448600,13.22744873046875,9.25900936126709,1.2691566944122314,-0.6421152949333191
1685683433550448600,13.24744873046875,9.4425687789917,1.3178834915161133,-0.4385890066623688
1685683433570448600,13.26744873046875,9.374917984008789,1.2549446821212769,-0.5370098948478699
1685683433590454800,13.287454833984375,8.664616584777832,1.03007173538208,-0.5591418743133545
1685683433610448600,13.30744873046875,9.761486053466797,1.2005484104156494,-0.5768015384674072
1685683433630448600,13.32744873046875,9.874942779541016,1.116234302520752,-0.022026654332876205
1685683433650448600,13.34744873046875,9.54845905303955,1.038068413734436,-0.39611586928367615
1685683433670448600,13.36744873046875,9.12575912475586,1.0243257284164429,-0.5276245474815369
1685683433690448600,13.38744873046875,8.490375518798828,0.6908420920372009,-0.6225594878196716
1685683433710448600,13.40744873046875,10.110723495483398,1.0777260065078735,-0.3829860985279083
1685683433730448600,13.42744873046875,9.95371150970459,1.0589938163757324,-0.039868246763944626
1685683433750448600,13.44744873046875,9.789709091186523,1.3361272811889648,-0.31853416562080383
1685683433770448600,13.46744873046875,9.412938117980957,1.2116289138793945,-0.4299890398979187
1685683433790454800,13.487454833984375,9.503342628479004,1.2942097187042236,-0.2510943114757538
1685683433810448600,13.50744873046875,9.620802879333496,1.1269986629486084,-0.2788095772266388
1685683433830448600,13.52744873046875,9.972663879394531,1.2339906692504883,-0.26208847761154175
1685683433850448600,13.54744873046875,10.267830848693848,1.136891484260559,-0.2259456068277359
1685683433870448600,13.56744873046875,10.336256980895996,1.2438548803329468,-0.15635095536708832
1685683433890448600,13.58744873046875,10.28706169128418,1.3241275548934937,-0.013570335693657398
1685683433910448600,13.60744873046875,10.350717544555664,1.4459542036056519,0.20578642189502716
1685683433930448600,13.62744873046875,10.343085289001465,1.3359836339950562,0.10886914283037186
1685683433950448600,13.64744873046875,10.213607788085938,1.3197414875030518,-0.10351569950580597
1685683433970448600,13.66744873046875,9.856372833251953,1.2718095779418945,-0.3618308901786804
1685683433990451700,13.68745166015625,9.862971305847168,1.260317325592041,0.0011875240597873926
1685683434010448600,13.70744873046875,9.880343437194824,1.2054039239883423,0.2512475252151489
1685683434030448600,13.72744873046875,9.93091869354248,1.200251579284668,0.1528458446264267
1685683434050448600,13.74744873046875,9.905952453613281,1.144897699356079,-0.06764098256826401
1685683434070450200,13.7674501953125,9.819972038269043,1.2213205099105835,-0.1820838302373886
1685683434090448600,13.78744873046875,9.61409854888916,1.1922932863235474,-0.23885513842105865
1685683434110450200,13.8074501953125,9.408455848693848,1.2593117952346802,0.12615527212619781
1685683434130448600,13.82744873046875,9.307621955871582,1.2336841821670532,0.12177868187427521
1685683434150450200,13.8474501953125,9.238774299621582,1.2642629146575928,0.0956052616238594
1685683434170450200,13.8674501953125,9.104402542114258,1.1195956468582153,-0.035960908979177475
1685683434190456300,13.887456298828125,9.124820709228516,1.1625285148620605,-0.06712383776903152
1685683434210448600,13.90744873046875,8.888110160827637,0.9917453527450562,-0.13608641922473907
1685683434230448600,13.92744873046875,9.044929504394531,1.0751019716262817,-0.0012641384964808822
1685683434250448600,13.94744873046875,8.904476165771484,1.102807641029358,-0.1522808074951172
1685683434270448600,13.96744873046875,8.932344436645508,1.1429439783096313,-0.057001154869794846
1685683434290448600,13.98744873046875,8.847274780273438,0.864890992641449,-0.1976078301668167
1685683434310448600,14.00744873046875,9.309412956237793,1.0760117769241333,0.04707000404596329
1685683434330448600,14.02744873046875,9.648144721984863,1.0962762832641602,-0.17559075355529785
1685683434350448600,14.04744873046875,9.543919563293457,0.9987651705741882,-0.20706972479820251
1685683434370448600,14.06744873046875,9.634220123291016,1.2763776779174805,-0.03632482886314392
1685683434390453200,14.087453369140626,9.42265796661377,1.451690673828125,0.23940101265907288
1685683434410448600,14.10744873046875,9.234837532043457,1.2871325016021729,0.01836831495165825
1685683434430448600,14.12744873046875,9.869168281555176,1.4650694131851196,0.0726209282875061
1685683434450448600,14.14744873046875,10.06092357635498,1.0688385963439941,-0.3229874074459076
1685683434470448600,14.16744873046875,10.88198184967041,1.209943413734436,-0.0618470199406147
1685683434490458000,14.1874580078125,11.098848342895508,1.3803818225860596,0.002279279986396432
1685683434510448600,14.20744873046875,10.546429634094238,1.472280740737915,-0.04897578805685043
1685683434530448600,14.22744873046875,10.260782241821289,1.2428779602050781,-0.1682453453540802
1685683434550456300,14.247456298828125,10.437206268310547,1.3134015798568726,0.005592855159193277
1685683434570448600,14.26744873046875,10.360936164855957,1.1498967409133911,-0.026671407744288445
1685683434590448600,14.28744873046875,10.324726104736328,1.3690714836120605,-0.17364667356014252
1685683434610450200,14.3074501953125,9.716924667358398,1.019479751586914,-0.37992149591445923
1685683434630448600,14.32744873046875,10.058453559875488,1.4706145524978638,0.11849382519721985
1685683434650448600,14.34744873046875,9.200304985046387,1.1792784929275513,-0.49113696813583374
1685683434670448600,14.36744873046875,9.116363525390625,1.094140648841858,-0.5422101020812988
1685683434690448600,14.38744873046875,9.826138496398926,1.4491050243377686,-0.1488235741853714
1685683434710448600,14.40744873046875,9.535578727722168,1.1101146936416626,-0.3412790894508362
1685683434730448600,14.42744873046875,9.817060470581055,1.2868738174438477,-0.03649721294641495
1685683434750448600,14.44744873046875,9.633922576904297,1.0523474216461182,-0.23293668031692505
1685683434770448600,14.46744873046875,9.637983322143555,1.3730746507644653,-0.11685619503259659
1685683434790448600,14.48744873046875,9.011114120483398,1.1260696649551392,-0.41626545786857605
1685683434810448600,14.50744873046875,9.118096351623535,1.1781866550445557,-0.15911865234375
1685683434830448600,14.52744873046875,8.232309341430664,1.0188764333724976,-0.27919265627861023
1685683434850448600,14.54744873046875,8.754858016967773,1.287505865097046,-0.14177505671977997
1685683434870448600,14.56744873046875,8.914532661437988,1.1393909454345703,-0.41747215390205383
1685683434890448600,14.58744873046875,8.943828582763672,1.1008635759353638,-0.40467754006385803
1685683434910448600,14.60744873046875,9.646171569824219,1.268869400024414,-0.3961063027381897
1685683434930448600,14.62744873046875,9.825133323669434,1.1358380317687988,-0.2978003919124603
1685683434950448600,14.64744873046875,10.461617469787598,1.5385714769363403,0.10585244745016098
1685683434970448600,14.66744873046875,10.510363578796387,1.6490398645401,0.4833797514438629
1685683434990448600,14.68744873046875,9.861860275268555,1.2905513048171997,0.23894132673740387
1685683435010448600,14.70744873046875,9.657261848449707,1.2316731214523315,-0.273053914308548
1685683435030448600,14.72744873046875,9.758699417114258,1.199360966682434,-0.5191778540611267
1685683435050448600,14.74744873046875,9.730993270874023,1.181241750717163,-0.5279789566993713
1685683435070448600,14.76744873046875,9.986100196838379,1.2984809875488281,-0.2598666250705719
1685683435090448600,14.78744873046875,10.494993209838867,1.5099177360534668,-0.06683653593063354
1685683435110448600,14.80744873046875,10.6751708984375,1.4113340377807617,0.025627534836530685
1685683435130448600,14.82744873046875,10.712798118591309,1.5337830781936646,0.10005848109722137
1685683435150448600,14.84744873046875,10.24582290649414,1.2390472888946533,-0.09526050090789795
1685683435170448600,14.86744873046875,10.187921524047852,1.2801316976547241,-0.12764926254749298
1685683435190448600,14.88744873046875,9.982748031616211,1.149044394493103,-0.2812516391277313
1685683435210448600,14.90744873046875,9.595903396606445,1.2033257484436035,-0.28898972272872925
1685683435230450200,14.9274501953125,9.294520378112793,1.1034971475601196,-0.4559134542942047
1685683435250450200,14.9474501953125,9.254317283630371,1.1192318201065063,-0.31383198499679565
1685683435270448600,14.96744873046875,9.328508377075195,1.212538719177246,-0.07563761621713638
1685683435290448600,14.98744873046875,9.263253211975098,1.3761584758758545,0.046763546764850616
1685683435310448600,15.00744873046875,8.96105670928955,1.239296317100525,-0.04414907842874527
1685683435330458000,15.0274580078125,8.896509170532227,1.2383960485458374,-0.11328405141830444
1685683435350448600,15.04744873046875,8.84162425994873,1.179565668106079,-0.18597202003002167
1685683435370448600,15.06744873046875,8.890053749084473,1.2092537879943848,-0.3398617208003998
1685683435390448600,15.08744873046875,8.758248329162598,0.9772557020187378,-0.517310380935669
1685683435410448600,15.10744873046875,8.822288513183594,1.033433198928833,-0.6271659135818481
1685683435430448600,15.12744873046875,9.050868034362793,1.2480303049087524,-0.43343669176101685
1685683435450448600,15.14744873046875,9.184598922729492,1.0240767002105713,-0.47363054752349854
1685683435470448600,15.16744873046875,9.465265274047852,1.4851137399673462,-0.1822083294391632
1685683435490448600,15.18744873046875,9.646458625793457,1.2750848531723022,-0.39498579502105713
1685683435510448600,15.20744873046875,10.168911933898926,1.2906662225723267,-0.038613684475421906
1685683435530451700,15.22745166015625,10.533577919006348,1.379404902458191,0.1414685994386673
1685683435550448600,15.24744873046875,9.895302772521973,0.9891501069068909,-0.27879998087882996
1685683435570448600,15.26744873046875,9.996356964111328,1.0264613628387451,-0.17713262140750885
1685683435590448600,15.28744873046875,9.876006126403809,0.4791659414768219,-0.40391141176223755
1685683435610448600,15.30744873046875,10.324190139770508,0.5631641149520874,-0.2170487493276596
1685683435630450200,15.3274501953125,10.424966812133789,0.737155556678772,-0.1556997150182724
1685683435650448600,15.34744873046875,10.179964065551758,0.8500086665153503,-0.40343254804611206
1685683435670448600,15.36744873046875,10.364805221557617,1.1396209001541138,-0.3177201449871063
1685683435690448600,15.38744873046875,10.325204849243164,0.8235191702842712,-0.5456193685531616
1685683435710448600,15.40744873046875,10.866812705993652,0.8236820101737976,-0.14649641513824463
1685683435730448600,15.42744873046875,11.148494720458984,1.0160895586013794,0.16664601862430573
1685683435750448600,15.44744873046875,10.544121742248535,1.1541967391967773,-0.13357730209827423
1685683435770448600,15.46744873046875,9.487225532531738,0.7005817294120789,-0.6039900779724121
1685683435790448600,15.48744873046875,9.194558143615723,0.34206438064575195,-1.0637917518615723
1685683435810448600,15.50744873046875,8.761131286621094,0.23876895010471344,-1.1812225580215454
1685683435830448600,15.52744873046875,8.356693267822266,0.12954546511173248,-1.1838178634643555
1685683435850448600,15.54744873046875,8.462928771972656,0.2916233539581299,-0.7605612874031067
1685683435870448600,15.56744873046875,8.810384750366211,0.40378689765930176,-0.5332461595535278
1685683435890448600,15.58744873046875,9.161919593811035,0.724159836769104,-0.08875784277915955
1685683435910448600,15.60744873046875,9.111957550048828,0.7692762017250061,-0.30832529067993164
1685683435930448600,15.62744873046875,9.18309497833252,0.8204354643821716,-0.3759758472442627
1685683435950448600,15.64744873046875,9.265685081481934,0.8300026655197144,-0.5278257131576538
1685683435970448600,15.66744873046875,9.082816123962402,0.9258952736854553,-0.266014963388443
1685683435990448600,15.68744873046875,9.288008689880371,1.1631511449813843,-0.170160710811615
1685683436010448600,15.70744873046875,9.30955696105957,0.7818409204483032,-0.43724825978279114
1685683436030448600,15.72744873046875,9.610679626464844,0.6889363527297974,-0.9239799380302429
1685683436050448600,15.74744873046875,9.589888572692871,0.45208272337913513,-1.134286642074585
1685683436070448600,15.76744873046875,9.804198265075684,0.5434741973876953,-1.0422152280807495
1685683436090448600,15.78744873046875,10.280319213867188,0.9063106775283813,-0.6877775192260742
1685683436110448600,15.80744873046875,10.553506851196289,1.1569644212722778,-0.5929192304611206
1685683436130448600,15.82744873046875,10.777863502502441,1.1721149682998657,-0.3300933837890625
1685683436150448600,15.84744873046875,10.878620147705078,1.1129494905471802,-0.1668279767036438
1685683436170448600,15.86744873046875,10.714492797851562,1.0214334726333618,-0.31424376368522644
1685683436190448600,15.88744873046875,10.426787376403809,0.9944843649864197,-0.39510074257850647
1685683436210448600,15.90744873046875,10.183143615722656,1.1014381647109985,-0.28353095054626465
1685683436230448600,15.92744873046875,10.186532974243164,1.380688190460205,-0.0482192225754261
1685683436250450200,15.9474501953125,9.941787719726562,1.335236668586731,-0.17869363725185394
1685683436270448600,15.96744873046875,9.887908935546875,1.2608058452606201,0.020053833723068237
1685683436290448600,15.98744873046875,9.81787395477295,1.1452616453170776,-0.023855825886130333
1685683436310448600,16.00744873046875,9.567181587219238,1.0799477100372314,-0.23783041536808014
1685683436330448600,16.02744873046875,9.409116744995117,0.8992142677307129,-0.4167730510234833
1685683436350448600,16.04744873046875,9.370895385742188,0.840546727180481,-0.5480615496635437
1685683436370448600,16.06744873046875,9.21666145324707,0.7288907766342163,-0.6408511996269226
1685683436390448600,16.08744873046875,9.119274139404297,0.7256442308425903,-0.48911625146865845
1685683436410448600,16.10744873046875,9.189826965332031,0.7953346371650696,-0.12739068269729614
1685683436430448600,16.12744873046875,8.98744010925293,0.9742581248283386,0.03357628732919693
1685683436450448600,16.14744873046875,8.84103012084961,1.2755540609359741,0.10069054365158081
1685683436470448600,16.16744873046875,8.900568962097168,1.5334573984146118,0.01758301816880703
1685683436490448600,16.18744873046875,8.453409194946289,0.9067224860191345,-0.7350390553474426
1685683436510448600,16.20744873046875,8.973160743713379,0.9819674491882324,-0.6783156991004944
1685683436530448600,16.22744873046875,9.130172729492188,0.9187701344490051,-0.723192572593689
1685683436550448600,16.24744873046875,9.48129653930664,0.8104468584060669,-0.39928579330444336
1685683436570448600,16.26744873046875,9.97900390625,0.7438497543334961,-0.23965959250926971
1685683436590448600,16.28744873046875,10.023775100708008,1.302627682685852,-0.11230721324682236
1685683436610450200,16.3074501953125,10.004277229309082,0.9592512845993042,-0.16517119109630585
1685683436630448600,16.32744873046875,9.930449485778809,1.0231189727783203,-0.02277364768087864
1685683436650448600,16.34744873046875,9.978171348571777,1.0778982639312744,-0.13977350294589996
1685683436670450200,16.3674501953125,9.892784118652344,1.2032874822616577,-0.311811238527298
1685683436690450200,16.3874501953125,9.656658172607422,1.1309633255004883,-0.4820390045642853
1685683436710448600,16.40744873046875,9.807599067687988,1.1366040706634521,-0.6026588678359985
1685683436730448600,16.42744873046875,10.061134338378906,1.2225943803787231,-0.38305312395095825
1685683436750448600,16.44744873046875,10.380425453186035,1.3114959001541138,-0.1510932743549347
1685683436770448600,16.46744873046875,10.464164733886719,1.2907428741455078,0.12831005454063416
1685683436790448600,16.48744873046875,10.355630874633789,1.2297290563583374,0.23660458624362946
1685683436810448600,16.50744873046875,10.064457893371582,1.1828314065933228,-0.12289915978908539
1685683436830448600,16.52744873046875,9.632410049438477,1.0972530841827393,-0.39262035489082336
1685683436850448600,16.54744873046875,9.297000885009766,0.9764894843101501,-0.4139479100704193
1685683436870448600,16.56744873046875,9.221976280212402,1.048353910446167,-0.214214026927948
1685683436890448600,16.58744873046875,9.43514633178711,1.1854267120361328,-0.12370361387729645
1685683436910448600,16.60744873046875,9.662107467651367,1.1505287885665894,-0.10822749137878418
1685683436930448600,16.62744873046875,10.004889488220215,1.011349081993103,-0.048286259174346924
1685683436950448600,16.64744873046875,9.860126495361328,1.0015519857406616,-0.23704512417316437
1685683436970448600,16.66744873046875,9.400440216064453,0.9351464509963989,-0.31160056591033936
1685683436990448600,16.68744873046875,9.078343391418457,0.9868324398994446,-0.31762436032295227
1685683437010448600,16.70744873046875,8.66528606414795,0.9818333983421326,-0.38500678539276123
1685683437030450200,16.7274501953125,8.791345596313477,1.125638723373413,-0.3507697284221649
1685683437050450200,16.7474501953125,9.151893615722656,1.051064133644104,-0.2526648938655853
1685683437070450200,16.7674501953125,9.564567565917969,1.0486794710159302,-0.3601837158203125
1685683437090448600,16.78744873046875,9.692045211791992,1.1986140012741089,-0.22487300634384155
1685683437110448600,16.80744873046875,9.509922981262207,1.0575284957885742,-0.4499088227748871
1685683437130448600,16.82744873046875,9.723169326782227,1.2733322381973267,-0.3077506721019745
1685683437150448600,16.84744873046875,9.7155179977417,1.248403787612915,-0.2513241469860077
1685683437170450200,16.8674501953125,9.78384780883789,1.2247490882873535,-0.28723713755607605
1685683437190450200,16.8874501953125,9.946088790893555,1.2833878993988037,-0.30800923705101013
1685683437210448600,16.90744873046875,9.821063041687012,1.0979138612747192,-0.24352861940860748
1685683437230448600,16.92744873046875,9.933150291442871,1.1199597120285034,-0.32497936487197876
1685683437250450200,16.9474501953125,9.931761741638184,1.076385259628296,-0.5583757162094116
1685683437270448600,16.96744873046875,10.157601356506348,1.0969465970993042,-0.5454182624816895
1685683437290450200,16.9874501953125,10.258837699890137,1.1665316820144653,-0.5191299319267273
1685683437310448600,17.00744873046875,10.165435791015625,1.2938170433044434,-0.4172518849372864
1685683437330448600,17.02744873046875,10.297978401184082,1.5501594543457031,-0.15773001313209534
1685683437350448600,17.04744873046875,10.247825622558594,1.5053303241729736,0.07316680252552032
1685683437370448600,17.06744873046875,9.896327018737793,1.259886384010315,0.032618604600429535
1685683437390448600,17.08744873046875,9.684775352478027,1.100528359413147,-0.1454908400774002
1685683437410448600,17.10744873046875,9.59730052947998,0.9693356156349182,-0.30045315623283386
1685683437430448600,17.12744873046875,9.436821937561035,1.006704330444336,-0.42066121101379395
1685683437450448600,17.14744873046875,9.556819915771484,0.899405837059021,-0.5344911217689514
1685683437470448600,17.16744873046875,9.691479682922363,0.8714415431022644,-0.47913721203804016
1685683437490448600,17.18744873046875,9.680427551269531,1.0473195314407349,-0.34624946117401123
1685683437510448600,17.20744873046875,9.386735916137695,1.151859998703003,-0.2637835741043091
1685683437530448600,17.22744873046875,9.503352165222168,1.2355517148971558,0.005679046735167503
1685683437550448600,17.24744873046875,9.311481475830078,1.0340461730957031,-0.04219541326165199
1685683437570448600,17.26744873046875,9.210034370422363,1.0699878931045532,-0.05980715900659561
1685683437590448600,17.28744873046875,9.158721923828125,1.0721138715744019,-0.09435070306062698
1685683437610448600,17.30744873046875,9.012550354003906,1.305203914642334,-0.04185064882040024
1685683437630448600,17.32744873046875,8.982010841369629,1.5211513042449951,-0.2792692482471466
1685683437650448600,17.34744873046875,8.898126602172852,1.3812916278839111,-0.2856665551662445
1685683437670448600,17.36744873046875,9.332770347595215,1.2794134616851807,-0.21732647716999054
1685683437690448600,17.38744873046875,9.59084701538086,1.6911205053329468,-0.12875059247016907
1685683437710448600,17.40744873046875,9.701688766479492,1.467942476272583,-0.017784129828214645
1685683437730448600,17.42744873046875,10.089653968811035,1.4473235607147217,0.10850521922111511
1685683437750448600,17.44744873046875,9.864273071289062,1.438819408416748,0.0870819017291069
1685683437770448600,17.46744873046875,9.242317199707031,1.296057939529419,-0.16992127895355225
1685683437790448600,17.48744873046875,9.122329711914062,1.1793358325958252,-0.24164198338985443
1685683437810448600,17.50744873046875,9.219476699829102,1.2146073579788208,-0.43992018699645996
1685683437830448600,17.52744873046875,9.378040313720703,1.1910099983215332,-0.3193003237247467
1685683437850448600,17.54744873046875,9.77120590209961,1.227267861366272,-0.27396371960639954
1685683437870448600,17.56744873046875,10.015453338623047,1.2585170269012451,-0.4840405583381653
1685683437890448600,17.58744873046875,10.23847770690918,1.3173280954360962,-0.5567476749420166
1685683437910448600,17.60744873046875,10.30960464477539,1.3772310018539429,-0.5193885564804077
1685683437930448600,17.62744873046875,10.165282249450684,1.3961261510849,-0.15004940330982208
1685683437950448600,17.64744873046875,10.087700843811035,1.565118432044983,0.31148561835289
1685683437970448600,17.66744873046875,9.557241439819336,1.4903905391693115,0.007517793215811253
1685683437990448600,17.68744873046875,9.418425559997559,1.1980202198028564,-0.3366726338863373
1685683438010448600,17.70744873046875,9.869704246520996,1.0860193967819214,-0.4183149039745331
1685683438030448600,17.72744873046875,10.185881614685059,1.0608612298965454,-0.5285152792930603
1685683438050448600,17.74744873046875,9.872261047363281,1.050997018814087,-0.6158269643783569
1685683438070448600,17.76744873046875,9.681730270385742,1.3443539142608643,-0.563087522983551
1685683438090448600,17.78744873046875,9.820967674255371,1.6049100160598755,-0.19462944567203522
1685683438110448600,17.80744873046875,9.627477645874023,1.6754432916641235,-0.17979496717453003
1685683438130448600,17.82744873046875,9.351847648620605,1.4617271423339844,-0.2163400799036026
1685683438150448600,17.84744873046875,9.443947792053223,1.3576656579971313,-0.13683341443538666
1685683438170448600,17.86744873046875,9.413493156433105,1.247857928276062,-0.1784733682870865
1685683438190448600,17.88744873046875,9.265588760375977,1.4346630573272705,-0.1715589165687561
1685683438210448600,17.90744873046875,8.966026306152344,1.1530379056930542,-0.4479934275150299
1685683438230448600,17.92744873046875,9.372102737426758,1.4263408184051514,-0.39843347668647766
1685683438250448600,17.94744873046875,9.173192024230957,1.3898341655731201,-0.4365970492362976
1685683438270448600,17.96744873046875,8.998587608337402,1.4898638725280762,-0.21512380242347717
1685683438290448600,17.98744873046875,9.215062141418457,1.5178089141845703,-0.2847471833229065
1685683438310448600,18.00744873046875,9.554559707641602,1.454630732536316,-0.3029239773750305
1685683438330448600,18.02744873046875,9.77748966217041,1.6637020111083984,-0.21868638694286346
1685683438350448600,18.04744873046875,10.054497718811035,1.479970932006836,-0.1849568635225296
1685683438370448600,18.06744873046875,9.843147277832031,1.451566219329834,-0.3607295751571655
1685683438390448600,18.08744873046875,9.40929889678955,1.5263803005218506,-0.3679792284965515
1685683438410448600,18.10744873046875,9.267849922180176,1.4134601354599,-0.4484052360057831
1685683438430448600,18.12744873046875,9.661619186401367,1.5417126417160034,-0.3128838539123535
1685683438450448600,18.14744873046875,9.984271049499512,1.794722318649292,-0.25410139560699463
1685683438470448600,18.16744873046875,10.199280738830566,1.7613279819488525,-0.20833386480808258
1685683438490448600,18.18744873046875,10.283346176147461,1.771785855293274,-0.09806650131940842
1685683438510448600,18.20744873046875,9.999699592590332,1.7663462162017822,-0.10085335373878479
1685683438530448600,18.22744873046875,9.851834297180176,1.7366485595703125,-0.1661192923784256
1685683438550448600,18.24744873046875,10.031647682189941,1.7165277004241943,0.06706637889146805
1685683438570448600,18.26744873046875,9.860289573669434,1.5071882009506226,-0.01959414593875408
1685683438590448600,18.28744873046875,9.846805572509766,1.448798418045044,-0.042406100779771805
1685683438610450200,18.3074501953125,9.805030822753906,1.2637075185775757,-0.1906646490097046
1685683438630448600,18.32744873046875,9.640511512756348,1.1588319540023804,-0.33268868923187256
1685683438650448600,18.34744873046875,9.423922538757324,1.4014220237731934,-0.40672698616981506
1685683438670448600,18.36744873046875,8.973515510559082,1.4546881914138794,-0.5315510630607605
1685683438690448600,18.38744873046875,9.02598762512207,1.6209895610809326,-0.2729964554309845
1685683438710448600,18.40744873046875,9.285528182983398,1.5014517307281494,-0.043373361229896545
1685683438730448600,18.42744873046875,9.113873481750488,1.4730948209762573,0.031076738610863686
1685683438750448600,18.44744873046875,9.003280639648438,1.3504542112350464,-0.14071202278137207
1685683438770448600,18.46744873046875,8.96949291229248,1.4299225807189941,-0.3091105818748474
1685683438790448600,18.48744873046875,8.624268531799316,1.1233211755752563,-0.35732024908065796
1685683438810448600,18.50744873046875,8.830074310302734,1.1918623447418213,-0.5615360736846924
1685683438830448600,18.52744873046875,9.19288158416748,1.4156627655029297,-0.414465069770813
1685683438850448600,18.54744873046875,9.595921516418457,1.6498348712921143,-0.22849301993846893
1685683438870448600,18.56744873046875,9.755337715148926,1.8218342065811157,0.1039179340004921
1685683438890508000,18.587508056640626,9.937957763671875,1.8518383502960205,0.20270270109176636
1685683438910448600,18.60744873046875,9.62161636352539,1.6821660995483398,0.07114609330892563
1685683438930448600,18.62744873046875,9.827441215515137,1.547142744064331,0.1394670456647873
1685683438950448600,18.64744873046875,9.738070487976074,1.3870950937271118,-0.14567281305789948
1685683438970448600,18.66744873046875,9.874032020568848,1.479300618171692,-0.366533100605011
1685683438990448600,18.68744873046875,10.18385124206543,1.451508641242981,-0.2455972135066986
1685683439010448600,18.70744873046875,10.253982543945312,1.5596308708190918,-0.13614389300346375
1685683439030448600,18.72744873046875,10.4059476852417,1.6139506101608276,-0.07110778987407684
1685683439050448600,18.74744873046875,10.431153297424316,1.7134917974472046,-0.19361430406570435
1685683439070448600,18.76744873046875,10.174715995788574,1.6956119537353516,-0.22201912105083466
1685683439090448600,18.78744873046875,10.041875839233398,1.855554223060608,-0.07460332661867142
1685683439110448600,18.80744873046875,9.605441093444824,1.7262576818466187,-0.15942510962486267
1685683439130448600,18.82744873046875,9.587254524230957,1.6909480094909668,0.04762545973062515
1685683439150448600,18.84744873046875,9.486823081970215,1.7816882133483887,-0.046524129807949066
1685683439170448600,18.86744873046875,9.4012451171875,1.6671974658966064,-0.18007269501686096
1685683439190448600,18.88744873046875,9.453237533569336,1.5373073816299438,-0.2107759416103363
1685683439210448600,18.90744873046875,9.543335914611816,1.4095048904418945,-0.21972067654132843
1685683439230448600,18.92744873046875,9.483768463134766,1.5057709217071533,-0.23229502141475677
1685683439250448600,18.94744873046875,9.375166893005371,1.370622992515564,-0.4166964292526245
1685683439270448600,18.96744873046875,9.214391708374023,1.4228453636169434,-0.5544109344482422
1685683439290448600,18.98744873046875,9.189894676208496,1.3449093103408813,-0.5205473899841309
1685683439310448600,19.00744873046875,9.081494331359863,1.3319710493087769,-0.5056936740875244
1685683439330448600,19.02744873046875,8.89210319519043,1.3408488035202026,-0.5177221894264221
1685683439350448600,19.04744873046875,8.789172172546387,1.4078097343444824,-0.5409938097000122
1685683439370448600,19.06744873046875,8.916102409362793,1.3913280963897705,-0.6391177773475647
1685683439390448600,19.08744873046875,9.431516647338867,1.5486176013946533,-0.27917349338531494
1685683439410448600,19.10744873046875,10.079254150390625,1.5685851573944092,-0.05747999623417854
1685683439430448600,19.12744873046875,10.256597518920898,1.5714677572250366,-0.007891288958489895
1685683439450448600,19.14744873046875,9.927653312683105,1.5209980010986328,-0.3153834044933319
1685683439470448600,19.16744873046875,9.839852333068848,1.4939435720443726,-0.4595526456832886
1685683439490448600,19.18744873046875,9.991022109985352,1.4269155263900757,-0.521955132484436
1685683439510448600,19.20744873046875,10.079828262329102,1.7339575290679932,-0.3102119266986847
1685683439530448600,19.22744873046875,9.544120788574219,1.7000364065170288,-0.37227919697761536
1685683439550448600,19.24744873046875,9.819847106933594,1.6178098917007446,-0.1878299117088318
1685683439570450200,19.2674501953125,10.250017166137695,1.6345406770706177,-0.06430825591087341
1685683439590448600,19.28744873046875,10.116201400756836,1.4967399835586548,-0.08169973641633987
1685683439610448600,19.30744873046875,9.838138580322266,1.531197428703308,-0.1030847504734993
1685683439630448600,19.32744873046875,9.641555786132812,1.5998822450637817,-0.357914000749588
1685683439650448600,19.34744873046875,9.775065422058105,1.6461669206619263,-0.12487198412418365
1685683439670448600,19.36744873046875,9.625686645507812,1.6008495092391968,-0.004472368862479925
1685683439690448600,19.38744873046875,9.227972030639648,1.496395230293274,-0.16492219269275665
1685683439710448600,19.40744873046875,9.285595893859863,1.4916354417800903,0.007201758679002523
1685683439730448600,19.42744873046875,9.224016189575195,1.3941245079040527,-0.23240037262439728
1685683439750448600,19.44744873046875,9.046232223510742,1.277718424797058,-0.27915433049201965
1685683439770448600,19.46744873046875,9.230690956115723,1.3090153932571411,-0.20514477789402008
1685683439790448600,19.48744873046875,9.402978897094727,1.395723819732666,0.18574216961860657
1685683439810448600,19.50744873046875,9.637054443359375,1.3492380380630493,0.07513005286455154
1685683439830448600,19.52744873046875,9.62489128112793,1.3169162273406982,-0.16816873848438263
1685683439850448600,19.54744873046875,9.525838851928711,1.3725287914276123,-0.3580576479434967
1685683439870448600,19.56744873046875,9.332042694091797,1.692307949066162,-0.5345103144645691
1685683439890448600,19.58744873046875,8.911304473876953,1.673087239265442,-0.34846168756484985
1685683439910448600,19.60744873046875,9.080718994140625,1.5817627906799316,-0.17609833180904388
1685683439930448600,19.62744873046875,9.315934181213379,1.5375945568084717,0.007019799202680588
1685683439950448600,19.64744873046875,9.518598556518555,1.4537593126296997,-0.04272213205695152
1685683439970448600,19.66744873046875,9.652606964111328,1.3111892938613892,-0.22234472632408142
1685683439990448600,19.68744873046875,9.718964576721191,1.4374021291732788,-0.33035194873809814
1685683440010450200,19.7074501953125,9.826024055480957,1.433820366859436,-0.296766072511673
1685683440030448600,19.72744873046875,10.125356674194336,1.4824706315994263,0.020791247487068176
1685683440050448600,19.74744873046875,9.6887788772583,1.388914704322815,-0.24220702052116394
1685683440070448600,19.76744873046875,9.523751258850098,1.5562502145767212,-0.45817357301712036
1685683440090448600,19.78744873046875,9.541132926940918,1.5515384674072266,-0.5884756445884705
1685683440110448600,19.80744873046875,9.50617790222168,1.4204415082931519,-0.47338154911994934
1685683440130448600,19.82744873046875,9.71766185760498,1.4832558631896973,-0.21136970818042755
1685683440150448600,19.84744873046875,10.149566650390625,1.4364923238754272,-0.12526462972164154
1685683440170448600,19.86744873046875,10.512518882751465,1.540764570236206,-0.15161043405532837
1685683440190448600,19.88744873046875,10.886091232299805,1.4350366592407227,-0.11746910959482193
1685683440210448600,19.90744873046875,10.558180809020996,1.324893832206726,-0.2179202437400818
1685683440230448600,19.92744873046875,9.846528053283691,1.4066413640975952,-0.29425695538520813
1685683440250448600,19.94744873046875,9.38444709777832,1.4062869548797607,-0.4959253668785095
1685683440270448600,19.96744873046875,9.488096237182617,1.556154489517212,-0.5561060309410095
1685683440290448600,19.98744873046875,9.5354642868042,1.3995928764343262,-0.4678174555301666
1685683440310448600,20.00744873046875,9.938484191894531,1.5264568328857422,-0.17196112871170044
1685683440330448600,20.02744873046875,9.709732055664062,1.6724169254302979,-0.25367045402526855
1685683440350448600,20.04744873046875,9.272838592529297,1.7303565740585327,-0.28709352016448975
1685683440370448600,20.06744873046875,9.297059059143066,1.4688619375228882,-0.1255040466785431
1685683440390448600,20.08744873046875,9.533673286437988,1.418756127357483,-0.08362467586994171
1685683440410448600,20.10744873046875,9.194941520690918,1.226559042930603,-0.4636611044406891
1685683440430448600,20.12744873046875,9.315962791442871,1.3669167757034302,-0.4907059967517853
1685683440450448600,20.14744873046875,8.942314147949219,1.2141188383102417,-0.2627205550670624
1685683440470448600,20.16744873046875,8.844247817993164,1.4255363941192627,-0.21135056018829346
1685683440490448600,20.18744873046875,8.68801212310791,1.2264153957366943,-0.31666669249534607
1685683440510448600,20.20744873046875,8.980918884277344,1.3111892938613892,-0.47211742401123047
1685683440530448600,20.22744873046875,9.271479606628418,1.227813720703125,-0.6091424226760864
1685683440550448600,20.24744873046875,9.899200439453125,1.4994022846221924,-0.14828728139400482
1685683440570448600,20.26744873046875,9.982375144958496,1.5401420593261719,0.12991896271705627
1685683440590448600,20.28744873046875,9.666886329650879,1.5498720407485962,0.285561203956604
1685683440610450200,20.3074501953125,9.61400318145752,1.5903724431991577,0.33797508478164673
1685683440630448600,20.32744873046875,9.47658634185791,1.546721339225769,0.04305732250213623
1685683440650448600,20.34744873046875,9.318731307983398,1.6138163805007935,-0.3954167664051056
1685683440670450200,20.3674501953125,9.665209770202637,1.542153239250183,-0.42287346720695496
1685683440690448600,20.38744873046875,10.216375350952148,1.6743130683898926,0.1443224847316742
1685683440710448600,20.40744873046875,10.210878372192383,1.7652162313461304,0.3922947347164154
1685683440730448600,20.42744873046875,10.550806999206543,1.6673794984817505,0.29980194568634033
1685683440750448600,20.44744873046875,10.603536605834961,1.7632912397384644,-0.028874073177576065
1685683440770448600,20.46744873046875,10.267112731933594,1.5826630592346191,-0.3001466989517212
1685683440790448600,20.48744873046875,10.011067390441895,1.608654499053955,-0.052691590040922165
1685683440810448600,20.50744873046875,9.450718879699707,1.596846342086792,0.026087220758199692
1685683440830448600,20.52744873046875,9.050101280212402,1.7872235774993896,-0.07851066440343857
1685683440850448600,20.54744873046875,8.896384239196777,1.644921898841858,-0.23403801023960114
1685683440870448600,20.56744873046875,9.559127807617188,1.5185463428497314,0.03805823251605034
1685683440890448600,20.58744873046875,9.803805351257324,1.4936848878860474,-0.0028060043696314096
1685683440910448600,20.60744873046875,9.770622253417969,1.664372444152832,-0.03807738423347473
1685683440930448600,20.62744873046875,9.315542221069336,1.4621580839157104,-0.24342328310012817
1685683440950448600,20.64744873046875,9.26927661895752,1.486109733581543,-0.15611152350902557
1685683440970448600,20.66744873046875,9.233123779296875,1.3407529592514038,-0.16327497363090515
1685683440990448600,20.68744873046875,9.244146347045898,1.4707868099212646,-0.26148512959480286
1685683441010448600,20.70744873046875,9.352250099182129,1.3488645553588867,-0.24129723012447357
1685683441030448600,20.72744873046875,9.420771598815918,1.2376298904418945,-0.4293857216835022
1685683441050448600,20.74744873046875,9.665420532226562,1.3985681533813477,-0.342112272977829
1685683441070448600,20.76744873046875,9.72269058227539,1.4859181642532349,-0.205125629901886
1685683441090448600,20.78744873046875,9.890571594238281,1.5511648654937744,-0.04231990873813629
1685683441110448600,20.80744873046875,10.08028793334961,1.5785067081451416,-0.17575354874134064
1685683441130448600,20.82744873046875,10.034137725830078,1.6130503416061401,-0.20055750012397766
1685683441150448600,20.84744873046875,9.915060043334961,1.625672459602356,-0.1559487134218216
1685683441170448600,20.86744873046875,9.826301574707031,1.615923285484314,-0.16519033908843994
1685683441190448600,20.88744873046875,9.842755317687988,1.51349937915802,-0.2264436036348343
1685683441210448600,20.90744873046875,9.541085243225098,1.8272068500518799,-0.3560848534107208
1685683441230448600,20.92744873046875,9.635082244873047,1.6833631992340088,-0.28067705035209656
1685683441250448600,20.94744873046875,9.73889446258545,1.8864394426345825,-0.05784391239285469
1685683441270448600,20.96744873046875,9.456032752990723,1.5035011768341064,-0.11343728005886078
1685683441290448600,20.98744873046875,9.930765151977539,1.6861213445663452,0.43143513798713684
1685683441310448600,21.00744873046875,9.458035469055176,1.504296064376831,-0.04932055622339249
1685683441330448600,21.02744873046875,9.597732543945312,1.5471618175506592,-0.1390935331583023
1685683441350448600,21.04744873046875,9.67805290222168,1.417578101158142,-0.19153612852096558
1685683441370450200,21.0674501953125,9.490280151367188,1.398012638092041,-0.18926642835140228
1685683441390448600,21.08744873046875,9.423137664794922,1.4623496532440186,-0.029965827241539955
1685683441410448600,21.10744873046875,9.502242088317871,1.566526174545288,0.2060067057609558
1685683441430448600,21.12744873046875,9.360695838928223,1.8137609958648682,0.3141096830368042
1685683441450448600,21.14744873046875,9.142316818237305,1.7431607246398926,0.07171113044023514
1685683441470448600,21.16744873046875,9.464299201965332,1.5928910970687866,0.2238195538520813
1685683441490448600,21.18744873046875,9.637811660766602,1.4328818321228027,0.4352850317955017
1685683441510448600,21.20744873046875,9.142125129699707,1.5812935829162598,0.12504436075687408
1685683441530448600,21.22744873046875,8.87525749206543,1.5742738246917725,-0.25437912344932556
1685683441550448600,21.24744873046875,8.97268295288086,1.432125210762024,-0.3594558835029602
1685683441570448600,21.26744873046875,9.226841926574707,1.541846752166748,-0.38494932651519775
1685683441590448600,21.28744873046875,9.5057373046875,1.6332286596298218,-0.12893255054950714
1685683441610448600,21.30744873046875,9.772624015808105,1.6873376369476318,0.09930191189050674
1685683441630448600,21.32744873046875,9.772336959838867,1.7745057344436646,0.13706326484680176
1685683441650448600,21.34744873046875,9.778992652893066,1.9115976095199585,0.2785414159297943
1685683441670448600,21.36744873046875,9.544532775878906,1.6726372241973877,0.022859837859869003
1685683441690450200,21.3874501953125,9.703258514404297,1.4905438423156738,-0.13855724036693573
1685683441710448600,21.40744873046875,9.892104148864746,1.4961079359054565,-0.48128244280815125
1685683441730448600,21.42744873046875,9.722871780395508,1.5131546258926392,-0.5194172859191895
1685683441750448600,21.44744873046875,10.000828742980957,1.7266887426376343,-0.1080455332994461
1685683441770448600,21.46744873046875,10.218998908996582,1.822418451309204,0.0611383356153965
1685683441790448600,21.48744873046875,10.43018627166748,1.8743630647659302,0.289229154586792
1685683441810448600,21.50744873046875,10.723159790039062,1.810916781425476,0.3746255040168762
1685683441830448600,21.52744873046875,10.366846084594727,1.7353078126907349,0.11562079191207886
1685683441850448600,21.54744873046875,9.674077987670898,1.6729724407196045,-0.3463931083679199
1685683441870448600,21.56744873046875,9.368711471557617,1.4780076742172241,-0.7103213667869568
1685683441890448600,21.58744873046875,9.510879516601562,1.3345376253128052,-0.6009542346000671
1685683441910448600,21.60744873046875,9.755356788635254,1.3978115320205688,-0.4161505699157715
1685683441930448600,21.62744873046875,10.086657524108887,1.4556363821029663,-0.16896361112594604
1685683441950448600,21.64744873046875,10.138055801391602,1.7219864130020142,0.018904617056250572
1685683441970448600,21.66744873046875,10.052515983581543,1.7726190090179443,-0.10913728922605515
1685683441990448600,21.68744873046875,10.048138618469238,1.7203583717346191,-0.08473558723926544
1685683442010448600,21.70744873046875,9.881473541259766,1.5787365436553955,-0.16256630420684814
1685683442030448600,21.72744873046875,9.375166893005371,1.385677695274353,-0.35870885848999023
1685683442050448600,21.74744873046875,9.401647567749023,1.5323848724365234,-0.2999742925167084
1685683442070450200,21.7674501953125,9.008968353271484,1.4055113792419434,-0.48941314220428467
1685683442090450200,21.7874501953125,8.941816329956055,1.4118129014968872,-0.4879191517829895
1685683442110448600,21.80744873046875,9.065108299255371,1.5710272789001465,-0.30385294556617737
1685683442130450200,21.8274501953125,9.184282302856445,1.7030819654464722,-0.12885594367980957
1685683442150448600,21.84744873046875,9.434581756591797,1.5484930276870728,-0.19288645684719086
1685683442170448600,21.86744873046875,9.795656204223633,1.7455741167068481,0.2356947958469391
1685683442190450200,21.8874501953125,9.752435684204102,1.8144984245300293,0.08313626050949097
1685683442210448600,21.90744873046875,9.363368034362793,1.476791501045227,-0.09603621810674667
1685683442230448600,21.92744873046875,9.255389213562012,1.114022135734558,-0.30366137623786926
1685683442250448600,21.94744873046875,9.463743209838867,1.0641268491744995,-0.3942771255970001
1685683442270448600,21.96744873046875,9.54537582397461,1.1091282367706299,-0.6105884909629822
1685683442290448600,21.98744873046875,9.520792007446289,1.082169532775879,-0.7610496878623962
1685683442310448600,22.00744873046875,9.694170951843262,1.2594554424285889,-0.5620148777961731
1685683442330448600,22.02744873046875,9.919934272766113,1.3175004720687866,-0.38388627767562866
1685683442350448600,22.04744873046875,10.450728416442871,1.4595820903778076,-0.22526565194129944
1685683442370450200,22.0674501953125,10.585952758789062,1.3673956394195557,-0.3020811975002289
1685683442390450200,22.0874501953125,10.450479507446289,1.546060562133789,-0.2842109203338623
1685683442410448600,22.10744873046875,10.006020545959473,1.474971890449524,-0.46177446842193604
1685683442430448600,22.12744873046875,9.329380989074707,1.2659963369369507,-0.5918083786964417
1685683442450448600,22.14744873046875,9.189520835876465,1.2046856880187988,-0.4275086522102356
1685683442470448600,22.16744873046875,9.41524600982666,1.4666401147842407,-0.2980397939682007
1685683442490448600,22.18744873046875,9.388191223144531,1.6617579460144043,-0.38765957951545715
1685683442510448600,22.20744873046875,9.664922714233398,1.43924081325531,-0.07438305765390396
1685683442530448600,22.22744873046875,10.258522033691406,1.4569100141525269,0.310939759016037
1685683442550448600,22.24744873046875,9.909333229064941,1.6868109703063965,-0.016654066741466522
1685683442570448600,22.26744873046875,9.034481048583984,1.6424223184585571,-0.34938105940818787
1685683442590448600,22.28744873046875,8.809723854064941,1.4974007606506348,-0.4011054039001465
1685683442610450200,22.3074501953125,9.145065307617188,1.2277562618255615,-0.28765854239463806
1685683442630448600,22.32744873046875,9.668140411376953,1.3966431617736816,-0.019900605082511902
1685683442650448600,22.34744873046875,10.28426456451416,1.7158764600753784,0.14143028855323792
1685683442670450200,22.3674501953125,9.772566795349121,1.653291940689087,-0.006406883709132671
1685683442690448600,22.38744873046875,9.643633842468262,1.562235713005066,0.07419151812791824
1685683442710448600,22.40744873046875,9.727631568908691,1.320249080657959,0.3630184233188629
1685683442730448600,22.42744873046875,9.922903060913086,1.5887155532836914,0.3082104027271271
1685683442750448600,22.44744873046875,9.866371154785156,1.654134750366211,0.17791792750358582
1685683442770448600,22.46744873046875,10.02451229095459,1.6939743757247925,0.22370463609695435
1685683442790448600,22.48744873046875,9.87717342376709,1.833182692527771,0.1379443258047104
1685683442810448600,22.50744873046875,9.343256950378418,1.9129096269607544,-0.12023680657148361
1685683442830448600,22.52744873046875,8.988866806030273,1.574944257736206,-0.3871711492538452
1685683442850448600,22.54744873046875,9.528789520263672,1.522041916847229,-0.31945353746414185
1685683442870448600,22.56744873046875,10.081724166870117,1.466496467590332,-0.07035122066736221
1685683442890448600,22.58744873046875,10.739258766174316,1.7278283834457397,0.38330212235450745
1685683442910448600,22.60744873046875,10.475139617919922,1.7128885984420776,0.3947176933288574
1685683442930448600,22.62744873046875,9.789363861083984,1.8360365629196167,0.18798314034938812
1685683442950448600,22.64744873046875,8.970939636230469,1.6564524173736572,-0.3359926640987396
1685683442970448600,22.66744873046875,8.71898365020752,1.6255862712860107,-0.5642462968826294
1685683442990448600,22.68744873046875,8.955071449279785,1.2989023923873901,-0.7388410568237305
1685683443010448600,22.70744873046875,9.892324447631836,1.6082714796066284,-0.19734926521778107
1685683443030448600,22.72744873046875,9.796201705932617,1.4438376426696777,-0.15191689133644104
1685683443050448600,22.74744873046875,10.041875839233398,1.8492622375488281,0.2166944146156311
1685683443070448600,22.76744873046875,9.457260131835938,1.5575430393218994,0.0057460842654109
1685683443090448600,22.78744873046875,9.146903991699219,1.622071623802185,-0.11361923068761826
1685683443110448600,22.80744873046875,9.060090065002441,1.4195700883865356,-0.6080601811408997
1685683443130448600,22.82744873046875,9.595012664794922,1.3711401224136353,-0.46323972940444946
1685683443150448600,22.84744873046875,9.864044189453125,1.3905524015426636,-0.48243165016174316
1685683443170448600,22.86744873046875,9.851633071899414,1.6914268732070923,-0.11360965669155121
1685683443190450200,22.8874501953125,10.154499053955078,1.7592593431472778,-0.02888364903628826
1685683443210448600,22.90744873046875,9.778111457824707,1.8053333759307861,0.14970465004444122
1685683443230450200,22.9274501953125,9.665861129760742,1.9563500881195068,0.08254249393939972
1685683443250450200,22.9474501953125,9.7066011428833,1.5781524181365967,-0.22862710058689117
1685683443270450200,22.9674501953125,10.133459091186523,1.6215449571609497,-0.1455100029706955
1685683443290448600,22.98744873046875,10.205897331237793,1.5403910875320435,-0.26619693636894226
1685683443310448600,23.00744873046875,9.85068416595459,1.6063848733901978,-0.4956859350204468
1685683443330448600,23.02744873046875,9.490960121154785,1.6695438623428345,-0.22029529511928558
1685683443350448600,23.04744873046875,9.479707717895508,1.7487249374389648,0.00017238251166418195
1685683443370448600,23.06744873046875,9.549799919128418,1.7913705110549927,0.155575230717659
1685683443390448600,23.08744873046875,9.54529857635498,1.9293148517608643,0.39099228382110596
1685683443410448600,23.10744873046875,9.848893165588379,1.7168245315551758,0.20326772332191467
1685683443430448600,23.12744873046875,10.311826705932617,1.3651260137557983,-0.1450503021478653
1685683443450448600,23.14744873046875,9.814416885375977,1.364120364189148,-0.1295071542263031
1685683443470448600,23.16744873046875,9.303523063659668,1.2711966037750244,-0.44148123264312744
1685683443490448600,23.18744873046875,9.287463188171387,1.2818939685821533,-0.3833595812320709
1685683443510448600,23.20744873046875,9.348955154418945,1.399803638458252,-0.3273256719112396
1685683443530448600,23.22744873046875,9.688855171203613,1.4733246564865112,-0.11563993990421295
1685683443550448600,23.24744873046875,10.006662368774414,1.5604065656661987,0.02727474644780159
1685683443570448600,23.26744873046875,10.111383438110352,1.6648608446121216,-0.018234239891171455
1685683443590448600,23.28744873046875,9.810787200927734,1.6139506101608276,-0.2584875822067261
1685683443610450200,23.3074501953125,9.590788841247559,1.5539997816085815,-0.14484919607639313
1685683443630448600,23.32744873046875,9.493412017822266,1.6314760446548462,-0.22438457608222961
1685683443650448600,23.34744873046875,9.443670272827148,1.4059135913848877,-0.3710438013076782
1685683443670448600,23.36744873046875,9.793807983398438,1.4393078088760376,-0.20182162523269653
1685683443690448600,23.38744873046875,9.800597190856934,1.4977551698684692,-0.341949462890625
1685683443710448600,23.40744873046875,9.876340866088867,1.510798692703247,-0.31053754687309265
1685683443730448600,23.42744873046875,9.949468612670898,1.3832069635391235,-0.2535555362701416
1685683443750448600,23.44744873046875,9.945724487304688,1.5927762985229492,0.032877177000045776
1685683443770448600,23.46744873046875,9.475149154663086,1.4250096082687378,-0.1543876975774765
1685683443790448600,23.48744873046875,9.436927795410156,1.5150412321090698,-0.05427176132798195
1685683443810448600,23.50744873046875,9.423434257507324,1.3897862434387207,-0.0516572967171669
1685683443830448600,23.52744873046875,9.181083679199219,1.2513725757598877,-0.39503368735313416
1685683443850448600,23.54744873046875,9.225567817687988,1.3698185682296753,-0.41472363471984863
1685683443870448600,23.56744873046875,9.116727828979492,1.3505403995513916,-0.48126327991485596
1685683443890448600,23.58744873046875,9.597723007202148,1.504937767982483,-0.24306893348693848
1685683443910448600,23.60744873046875,9.945206642150879,1.8150634765625,0.07125144451856613
1685683443930448600,23.62744873046875,10.06460189819336,1.857258915901184,0.24440011382102966
1685683443950448600,23.64744873046875,10.108884811401367,1.9988040924072266,0.3009224236011505
1685683443970448600,23.66744873046875,9.766561508178711,1.6528706550598145,0.15783536434173584
1685683443990448600,23.68744873046875,9.486133575439453,1.4045345783233643,-0.07077260315418243
1685683444010448600,23.70744873046875,9.414556503295898,1.2585073709487915,-0.4317990839481354
1685683444030448600,23.72744873046875,9.55075740814209,1.447227954864502,-0.29265764355659485
1685683444050448600,23.74744873046875,9.852523803710938,1.4113245010375977,-0.24147918820381165
1685683444070448600,23.76744873046875,10.378299713134766,1.801224946975708,0.11986330896615982
1685683444090448600,23.78744873046875,9.987967491149902,1.9304064512252808,-0.046888045966625214
1685683444110448600,23.80744873046875,9.732917785644531,1.9828203916549683,-0.041505880653858185
1685683444130448600,23.82744873046875,9.693346977233887,1.698140263557434,0.025895684957504272
1685683444150448600,23.84744873046875,9.614319801330566,1.870063066482544,0.00419464148581028
1685683444170448600,23.86744873046875,9.165290832519531,1.5235263109207153,-0.16309301555156708
1685683444190448600,23.88744873046875,9.40119743347168,1.7076786756515503,-0.1163390502333641
1685683444210448600,23.90744873046875,9.109477996826172,1.751866102218628,-0.25533682107925415
1685683444230448600,23.92744873046875,9.237366676330566,1.7410156726837158,-0.20824766159057617
1685683444250448600,23.94744873046875,9.53409481048584,1.7116435766220093,0.287227600812912
1685683444270450200,23.9674501953125,10.043025016784668,1.603588342666626,0.010975020006299019
1685683444290448600,23.98744873046875,9.91823959350586,1.6101963520050049,-0.21709662675857544
1685683444310448600,24.00744873046875,9.812338829040527,1.4951597452163696,-0.2327834516763687
1685683444330448600,24.02744873046875,9.704925537109375,1.5019018650054932,-0.21599529683589935
1685683444350448600,24.04744873046875,9.417688369750977,1.5044301748275757,-0.634856104850769
1685683444370448600,24.06744873046875,9.396437644958496,1.4395281076431274,-0.4483669400215149
1685683444390448600,24.08744873046875,9.570246696472168,1.4908214807510376,-0.2647412419319153
1685683444410448600,24.10744873046875,9.486257553100586,1.7294467687606812,-0.0456143319606781
1685683444430448600,24.12744873046875,9.399894714355469,1.6821852922439575,-0.14741578698158264
1685683444450448600,24.14744873046875,9.855960845947266,1.6070648431777954,0.3209666609764099
1685683444470448600,24.16744873046875,10.173250198364258,1.5235072374343872,0.21578460931777954
1685683444490448600,24.18744873046875,9.643662452697754,1.6966462135314941,-0.07687303423881531
1685683444510448600,24.20744873046875,9.512134552001953,1.6290051937103271,-0.44989922642707825
1685683444530448600,24.22744873046875,9.573205947875977,1.4974104166030884,-0.4150492250919342
1685683444550448600,24.24744873046875,9.799468040466309,1.4674732685089111,-0.2656893730163574
1685683444570448600,24.26744873046875,9.899707794189453,1.5213524103164673,-0.02827073261141777
1685683444590448600,24.28744873046875,9.939298629760742,1.762333631515503,0.16944244503974915
1685683444610450200,24.3074501953125,9.517899513244629,1.753436803817749,0.06087975949048996
1685683444630448600,24.32744873046875,9.09358024597168,1.684723138809204,-0.13961069285869598
1685683444650448600,24.34744873046875,9.175577163696289,1.4173674583435059,-0.16975848376750946
1685683444670448600,24.36744873046875,9.743597030639648,1.5412434339523315,-0.12136687338352203
1685683444690448600,24.38744873046875,9.990850448608398,1.6297810077667236,-0.09731951355934143
1685683444710448600,24.40744873046875,10.078592300415039,1.8998948335647583,0.054300494492053986
1685683444730448600,24.42744873046875,9.592436790466309,1.7627261877059937,0.01324472390115261
1685683444750448600,24.44744873046875,9.524832725524902,1.8118648529052734,0.15208926796913147
1685683444770448600,24.46744873046875,9.32382583618164,1.756386399269104,-0.20193655788898468
1685683444790448600,24.48744873046875,9.27857494354248,1.4496890306472778,-0.4789169728755951
1685683444810448600,24.50744873046875,9.77299690246582,1.6318016052246094,-0.23431573808193207
1685683444830448600,24.52744873046875,9.788951873779297,1.557658076286316,-0.22562000155448914
1685683444850448600,24.54744873046875,9.828160285949707,1.9162137508392334,-0.09922529757022858
1685683444870448600,24.56744873046875,9.602099418640137,1.6790632009506226,-0.057451263070106506
1685683444890448600,24.58744873046875,9.923487663269043,1.857613205909729,0.17894263565540314
1685683444910448600,24.60744873046875,9.825526237487793,1.7407474517822266,-0.09813353419303894
1685683444930448600,24.62744873046875,9.918057441711426,1.6919536590576172,-0.09209057688713074
1685683444950448600,24.64744873046875,10.145381927490234,1.7718623876571655,-0.07573339343070984
1685683444970448600,24.66744873046875,9.960693359375,1.603645920753479,-0.07874050736427307
1685683444990448600,24.68744873046875,9.76673412322998,1.5646300315856934,-0.0027772739995270967
1685683445010448600,24.70744873046875,9.331563949584961,1.625749111175537,-0.18358738720417023
1685683445030448600,24.72744873046875,9.16896915435791,1.4721275568008423,-0.3436828553676605
1685683445050448600,24.74744873046875,9.589343070983887,1.5236316919326782,-0.3460100293159485
1685683445070448600,24.76744873046875,10.125662803649902,1.5615366697311401,-0.007230489049106836
1685683445090448600,24.78744873046875,10.216680526733398,1.7725520133972168,0.14920665323734283
1685683445110448600,24.80744873046875,9.875085830688477,1.6869354248046875,0.10607271641492844
1685683445130448600,24.82744873046875,9.676137924194336,1.7461680173873901,0.20883184671401978
1685683445150448600,24.84744873046875,9.05754280090332,1.619706153869629,-0.15241488814353943
1685683445170448600,24.86744873046875,8.976274490356445,1.7335072755813599,-0.3562667965888977
1685683445190448600,24.88744873046875,9.1216402053833,1.5457637310028076,-0.4942494332790375
1685683445210448600,24.90744873046875,9.735006332397461,1.6469618082046509,-0.033356018364429474
1685683445230448600,24.92744873046875,9.723102569580078,1.6480536460876465,0.2382805347442627
1685683445250448600,24.94744873046875,9.405305862426758,1.8820053339004517,0.062000248581171036
1685683445270448600,24.96744873046875,9.418511390686035,1.8266322612762451,0.16995958983898163
1685683445290448600,24.98744873046875,9.40341854095459,1.810734748840332,-0.14792335033416748
1685683445310448600,25.00744873046875,9.588135719299316,1.6172449588775635,-0.1609956920146942
1685683445330448600,25.02744873046875,10.273299217224121,1.727866530418396,0.08290641754865646
1685683445350448600,25.04744873046875,10.364690780639648,1.6905840635299683,0.12120406329631805
1685683445370448600,25.06744873046875,9.925948143005371,1.7808837890625,-0.104023277759552
1685683445390448600,25.08744873046875,9.514681816101074,1.7858924865722656,-0.10607271641492844
1685683445410448600,25.10744873046875,9.344426155090332,1.6733746528625488,-0.10183018445968628
1685683445430448600,25.12744873046875,9.5240478515625,1.6995288133621216,-0.10409989207983017
1685683445450448600,25.14744873046875,9.935917854309082,1.8517426252365112,0.026029760017991066
1685683445470448600,25.16744873046875,10.063691139221191,1.765177845954895,0.08342356234788895
1685683445490448600,25.18744873046875,10.126611709594727,1.976365566253662,0.38853105902671814
1685683445510448600,25.20744873046875,9.610661506652832,1.9133598804473877,0.21085254848003387
1685683445530448600,25.22744873046875,9.301091194152832,1.728891372680664,0.08875784277915955
1685683445550448600,25.24744873046875,9.334236145019531,1.4265706539154053,0.04978981614112854
1685683445570448600,25.26744873046875,9.2345609664917,1.3429843187332153,-0.27458620071411133
1685683445590448600,25.28744873046875,9.461712837219238,1.4169460535049438,-0.43112868070602417
1685683445610448600,25.30744873046875,9.641804695129395,1.3693301677703857,-0.3282163143157959
1685683445630448600,25.32744873046875,9.541305541992188,1.8683583736419678,-0.2605370283126831
1685683445650448600,25.34744873046875,9.15185546875,1.7611747980117798,-0.13831782341003418
1685683445670448600,25.36744873046875,9.514203071594238,1.9366984367370605,0.3302370309829712
1685683445690450200,25.3874501953125,9.47248649597168,1.8124489784240723,0.09026140719652176
1685683445710448600,25.40744873046875,9.789478302001953,1.757047176361084,0.1318822056055069
1685683445730448600,25.42744873046875,10.258369445800781,1.6697354316711426,0.1612638533115387
1685683445750448600,25.44744873046875,10.216997146606445,1.7058974504470825,0.23291751742362976
1685683445770448600,25.46744873046875,9.886970520019531,1.7459667921066284,-0.005257667042315006
