time,seconds_elapsed,z,y,x
1685683420534304300,0.23130419921875,0.3012438416481018,0.10246828198432922,0.3688927888870239
1685683420571299600,0.268299560546875,0.028187068179249763,-0.07147122919559479,-0.0061610122211277485
1685683420591299600,0.288299560546875,0.04101523756980896,-0.02007128670811653,0.016091935336589813
1685683420611301000,0.308301025390625,0.031119219958782196,0.008709193207323551,-0.026738444343209267
1685683420631302700,0.328302734375,0.05071926862001419,0.09539970010519028,-0.034033920615911484
1685683420651299600,0.348299560546875,0.06461209058761597,0.0809483677148819,-0.008098327554762363
1685683420671299600,0.368299560546875,0.02888519875705242,0.07550293952226639,-0.029129544273018837
1685683420691299600,0.388299560546875,-0.00874409917742014,0.15051719546318054,0.029216811060905457
1685683420711299600,0.408299560546875,-0.0026703537441790104,0.14521139860153198,0.13674654066562653
1685683420731299600,0.428299560546875,0.0262148454785347,0.05778785049915314,0.20299924910068512
1685683420751299600,0.448299560546875,0.005044001620262861,-0.027925267815589905,0.15241959691047668
1685683420771299600,0.468299560546875,-0.003630284918472171,-0.024923302233219147,0.1033933013677597
1685683420791299600,0.488299560546875,-0.003752457909286022,-0.024591689929366112,0.032620202749967575
1685683420811299600,0.508299560546875,0.009634217247366905,0.005916666239500046,-0.04937536269426346
1685683420831304200,0.52830419921875,0.03157300502061844,0.049672070890665054,-0.06339035928249359
1685683420851299600,0.548299560546875,0.01926843449473381,-0.01961750164628029,-0.011920598335564137
1685683420871299600,0.568299560546875,0.018989183008670807,-0.06742206960916519,0.026371924206614494
1685683420891299600,0.588299560546875,0.04516912251710892,-0.0076445420272648335,0.04345869645476341
1685683420911299600,0.608299560546875,0.0645248219370842,0.057648226618766785,0.033056534826755524
1685683420931299600,0.628299560546875,0.053703781217336655,0.01151917316019535,-0.04822344705462456
1685683420951299600,0.648299560546875,0.04942772537469864,-0.005061454605311155,-0.11974704265594482
1685683420971299600,0.668299560546875,0.04269075393676758,0.023544492200016975,-0.10950195789337158
1685683420991299600,0.688299560546875,0.037315137684345245,0.048031460493803024,-0.020664697512984276
1685683421011299600,0.708299560546875,0.035499997437000275,0.07616616785526276,0.08023278415203094
1685683421031299600,0.728299560546875,0.007661995477974415,0.04714134335517883,0.10550515353679657
1685683421051299600,0.748299560546875,-0.001117010717280209,-0.026808258146047592,0.07405432313680649
1685683421071299600,0.768299560546875,-0.016022123396396637,-0.02652900479733944,0.029932396486401558
1685683421091299600,0.788299560546875,-0.026459190994501114,0.026511551812291145,0.0023387412074953318
1685683421111299600,0.808299560546875,-0.051539573818445206,0.06930702179670334,0.0018675023457035422
1685683421131299600,0.828299560546875,-0.11554079502820969,0.0999375507235527,-0.09061749279499054
1685683421151299600,0.848299560546875,-0.09721484035253525,0.13416345417499542,-0.12253956496715546
1685683421171299600,0.868299560546875,-0.06239552050828934,-0.0005934119690209627,-0.1304459124803543
1685683421191299600,0.888299560546875,-0.04846779257059097,-0.1604481190443039,-0.08127998560667038
1685683421211301000,0.908301025390625,-0.037716563791036606,-0.1244245246052742,-0.08508480340242386
1685683421231299600,0.928299560546875,-0.03693116828799248,-0.052953287959098816,-0.14535102248191833
1685683421251299600,0.948299560546875,0.002007128670811653,-0.15687018632888794,-0.19018852710723877
1685683421271299600,0.968299560546875,0.009477137587964535,-0.3210882246494293,-0.1402721107006073
1685683421291299600,0.988299560546875,0.00989601667970419,-0.3830125033855438,-0.199351504445076
1685683421311299600,1.008299560546875,0.01014036312699318,-0.3076491951942444,-0.2802824378013611
1685683421331299600,1.028299560546875,0,-0.17982126772403717,-0.2646268308162689
1685683421351299600,1.048299560546875,0.004328416660428047,-0.14810864627361298,-0.18526670336723328
1685683421371299600,1.068299560546875,0.20408134162425995,-0.06639232486486435,-0.1783028393983841
1685683421391299600,1.088299560546875,0.15430456399917603,-0.2589370608329773,-0.22560125589370728
1685683421411299600,1.108299560546875,0.10711085796356201,-0.13428562879562378,-0.24460789561271667
1685683421431299600,1.128299560546875,0.07609635591506958,-0.06571164727210999,-0.4118976891040802
1685683421451299600,1.148299560546875,0.04672246426343918,0.035063665360212326,-0.43886303901672363
1685683421471299600,1.168299560546875,0.05019566789269447,0.014451325871050358,-0.3016103506088257
1685683421491299600,1.188299560546875,-0.026808258146047592,0.014817845076322556,-0.1448623239994049
1685683421511299600,1.208299560546875,-0.08990190923213959,0.11969467997550964,0.022305307909846306
1685683421531299600,1.228299560546875,-0.18757052719593048,0.005567600484937429,0.05677555873990059
1685683421551299600,1.248299560546875,-0.24863959848880768,0.06099925562739372,-0.019774580374360085
1685683421571299600,1.268299560546875,-0.1771160066127777,-0.03813544288277626,-0.008796459063887596
1685683421591299600,1.288299560546875,-0.09307841211557388,-0.13531537353992462,0.07759733498096466
1685683421611301000,1.308301025390625,-0.02445206232368946,-0.13259266316890717,0.05885250121355057
1685683421631299600,1.328299560546875,-0.014992378652095795,-0.04026474431157112,-0.07539822161197662
1685683421651299600,1.348299560546875,-0.007470009382814169,0.03703588619828224,-0.2275211215019226
1685683421671299600,1.368299560546875,0.035412728786468506,0.10941468924283981,-0.27199211716651917
1685683421691299600,1.388299560546875,0.10995574295520782,0.16826719045639038,-0.25068163871765137
1685683421711299600,1.408299560546875,0.18254399299621582,0.1573065221309662,-0.22886502742767334
1685683421731299600,1.428299560546875,0.14646802842617035,0.10320131480693817,-0.10824532061815262
1685683421751299600,1.448299560546875,-0.07082545757293701,0.2194751501083374,0.11171852797269821
1685683421771299600,1.468299560546875,-0.13472196459770203,0.2663547098636627,0.299515962600708
1685683421791299600,1.488299560546875,-0.1604306697845459,0.2168920636177063,0.23401375114917755
1685683421811299600,1.508299560546875,-0.07578219473361969,0.15776030719280243,0.05714207887649536
1685683421831299600,1.528299560546875,-0.027454029768705368,0.08773770183324814,-0.10728538781404495
1685683421851299600,1.548299560546875,0.04255112633109093,0.02733185514807701,-0.16400858759880066
1685683421871299600,1.568299560546875,0.13529792428016663,-0.011466813273727894,-0.08532914519309998
1685683421891299600,1.588299560546875,0.17500416934490204,0.0026529005263000727,-0.011030481196939945
1685683421911299600,1.608299560546875,0.027803095057606697,0.00427605677396059,-0.02134537696838379
1685683421931299600,1.628299560546875,-0.17277014255523682,0.09068730473518372,0.03179989755153656
1685683421951299600,1.648299560546875,-0.21643827855587006,0.2350609451532364,0.15048228204250336
1685683421971299600,1.668299560546875,-0.07414158433675766,0.3096737563610077,0.24895375967025757
1685683421991299600,1.688299560546875,0.11917108297348022,0.2232450693845749,0.1791754961013794
1685683422011299600,1.708299560546875,0.11627383530139923,0.07361798733472824,0.03070034086704254
1685683422031301000,1.728301025390625,0.04122467711567879,0.0518537312746048,0.03021164983510971
1685683422051299600,1.748299560546875,-0.02082177810370922,0.0057246801443398,0.016807520762085915
1685683422071299600,1.768299560546875,0.0889943391084671,-0.04818854108452797,-0.01961750164628029
1685683422091299600,1.788299560546875,0.2755700349807739,0.03450515866279602,-0.08539895713329315
1685683422111299600,1.808299560546875,0.43935173749923706,-0.0642455667257309,-0.1675865203142166
1685683422131299600,1.828299560546875,0.30693361163139343,-0.18048450350761414,-0.18601718544960022
1685683422151299600,1.848299560546875,0.285727858543396,-0.27871161699295044,0.014905111864209175
1685683422171299600,1.868299560546875,0.26981043815612793,-0.09025097638368607,0.2627069652080536
1685683422191299600,1.888299560546875,0.07738789916038513,0.02918190509080887,0.31234413385391235
1685683422211299600,1.908299560546875,0.05803219601511955,-0.02822197414934635,0.21638591587543488
1685683422231299600,1.928299560546875,-0.025307273492217064,-0.13243559002876282,0.08143706619739532
1685683422251299600,1.948299560546875,-0.039968039840459824,-0.249442458152771,-0.019076447933912277
1685683422271299600,1.968299560546875,-0.02223549410700798,-0.2591639459133148,0.025272367522120476
1685683422291299600,1.988299560546875,-0.025394540280103683,-0.1946914792060852,0.08449138700962067
1685683422311299600,2.008299560546875,-0.04445353522896767,-0.13706070184707642,0.03741985931992531
1685683422331299600,2.028299560546875,-0.06672393530607224,-0.1437104046344757,-0.08311257511377335
1685683422351299600,2.048299560546875,-0.05639158934354782,-0.12102112919092178,-0.0907396674156189
1685683422371299600,2.068299560546875,-0.02165953628718853,-0.10489428788423538,-0.05365142226219177
1685683422391299600,2.088299560546875,-0.01661553420126438,-0.14810864627361298,-0.003281218931078911
1685683422411299600,2.108299560546875,0.00094247778179124,0.04401720315217972,0.03621558099985123
1685683422431299600,2.128299560546875,-0.04677482321858406,-0.0303861815482378,0.057648226618766785
1685683422451299600,2.148299560546875,-0.028448866680264473,0.05248204991221428,0.026965336874127388
1685683422471299600,2.168299560546875,-0.005201081279665232,-0.0005061454721726477,-0.020036378875374794
1685683422491299600,2.188299560546875,-0.019024088978767395,0.07684684544801712,-0.07880161702632904
1685683422511299600,2.208299560546875,-0.019495327025651932,0.10433578491210938,-0.002949606394395232
1685683422531299600,2.228299560546875,-0.018500490114092827,0.05002113804221153,0.0460766926407814
1685683422551299600,2.248299560546875,-0.061505403369665146,-0.07091272622346878,-0.0200189258903265
1685683422571299600,2.268299560546875,-0.05661848187446594,-0.15772540867328644,-0.03344050794839859
1685683422591299600,2.288299560546875,-0.045204028487205505,-0.12105603516101837,0.0018151424592360854
1685683422611299600,2.308299560546875,-0.04858996719121933,-0.09450957924127579,0.01335176918655634
1685683422631299600,2.328299560546875,-0.045204028487205505,-0.03160791099071503,0.006702064536511898
1685683422651299600,2.348299560546875,-0.06051056459546089,0.005532693583518267,-0.013508847914636135
1685683422671299600,2.368299560546875,-0.0682772770524025,0.024731315672397614,-0.053040556609630585
1685683422691299600,2.388299560546875,-0.07707373797893524,0.03783873841166496,-0.05768313258886337
1685683422711299600,2.408299560546875,-0.09840166568756104,0.0492531917989254,-0.0711396187543869
1685683422731299600,2.428299560546875,-0.11051424592733383,0.09019861370325089,-0.09257226437330246
1685683422751299600,2.448299560546875,-0.1186823919415474,0.05536184459924698,-0.10787880420684814
1685683422771299600,2.468299560546875,-0.09845402091741562,0.03127630054950714,-0.08660323917865753
1685683422791299600,2.488299560546875,-0.09731955826282501,0.027401668950915337,-0.05297074094414711
1685683422811299600,2.508299560546875,-0.08644615858793259,0.047682393342256546,-0.0639488622546196
1685683422831299600,2.528299560546875,-0.04726351425051689,0.049323003739118576,-0.06789331138134003
1685683422851299600,2.548299560546875,-0.034348078072071075,0.01864011585712433,-0.04132939502596855
1685683422871299600,2.568299560546875,-0.012217304669320583,-0.04501204192638397,-0.039392080157995224
1685683422891299600,2.588299560546875,0.007801621686667204,-0.04590215906500816,-0.052866023033857346
1685683422911299600,2.608299560546875,0.010192723013460636,-0.03701843321323395,-0.01045452244579792
1685683422931299600,2.628299560546875,0.016091935336589813,0.012060225009918213,0.008848818950355053
1685683422951299600,2.648299560546875,-0.0062831854447722435,-0.03389429301023483,0.011170106939971447
1685683422971299600,2.668299560546875,-0.10960667580366135,-0.10204940289258957,0.040107667446136475
1685683422991299600,2.688299560546875,-0.09077457338571548,-0.055344391614198685,0.06199409440159798
1685683423011299600,2.708299560546875,-0.05832890421152115,0.004520402755588293,0.02453932911157608
1685683423031299600,2.728299560546875,-0.007103490177541971,0.024661501869559288,-0.0213104709982872
1685683423051299600,2.748299560546875,-0.012322024442255497,0.021415190771222115,0.003351032268255949
1685683423071299600,2.768299560546875,-0.00663225119933486,0.002373647876083851,0.06614797562360764
1685683423091299600,2.788299560546875,0.013142329640686512,-0.033457960933446884,0.08077383786439896
1685683423111299600,2.808299560546875,0.00296705961227417,-0.02600540593266487,0.06832963973283768
1685683423131299600,2.828299560546875,-0.00921533815562725,-0.033196162432432175,0.05448918044567108
1685683423151299600,2.848299560546875,0.00296705961227417,0.00296705961227417,0.030316369608044624
1685683423171299600,2.868299560546875,0.006457718089222908,0.026319565251469612,0.032445669174194336
1685683423191299600,2.888299560546875,-0.015062191523611546,0.019547687843441963,0.02609267272055149
1685683423211299600,2.908299560546875,-0.0303861815482378,0.010192723013460636,0.02157226949930191
1685683423231299600,2.928299560546875,-0.017610372975468636,-0.039043016731739044,0.028204521164298058
1685683423251299600,2.948299560546875,-0.025010569021105766,-0.029024824500083923,0.013404129073023796
1685683423271299600,2.968299560546875,-0.02604031190276146,-0.01448623277246952,-0.007819075137376785
1685683423291299600,2.988299560546875,-0.026319565251469612,-0.0246265958994627,-0.01864011585712433
1685683423311299600,3.008299560546875,-0.03844960406422615,-0.0449247732758522,-0.01595230959355831
1685683423331299600,3.028299560546875,-0.04335397854447365,-0.07510151714086533,-0.007470009382814169
1685683423351299600,3.048299560546875,-0.030979594215750694,-0.06874851882457733,0.016912240535020828
1685683423371299600,3.068299560546875,-0.031695179641246796,0.020978856831789017,0.0414864756166935
1685683423391299600,3.088299560546875,-0.04372049868106842,-0.017732545733451843,-0.0005410520825535059
1685683423411299600,3.108299560546875,-0.03728023171424866,-0.016371188685297966,-0.07637561112642288
1685683423431299600,3.128299560546875,0.0858352929353714,-0.04452335089445114,-0.08906415104866028
1685683423451299600,3.148299560546875,0.12260937690734863,0.04153883457183838,-0.0501258559525013
1685683423471299600,3.168299560546875,0.001343903481028974,0.11625637859106064,0.07138396799564362
1685683423491299600,3.188299560546875,-0.051888637244701385,-0.02701769582927227,0.058712877333164215
1685683423511299600,3.208299560546875,-0.04155628755688667,-0.007592182140797377,0.04328416660428047
1685683423531299600,3.228299560546875,-0.006771877408027649,0.05050982907414436,0.026895523071289062
1685683423551299600,3.248299560546875,0.013473941944539547,0.09208357334136963,-0.009599311277270317
1685683423571299600,3.268299560546875,0.03136356547474861,0.0936194583773613,-0.031956978142261505
1685683423591299600,3.288299560546875,0.017435839399695396,0.076619952917099,0.02192133478820324
1685683423611299600,3.308299560546875,0.036564648151397705,0.08197811245918274,0.0786270797252655
1685683423631299600,3.328299560546875,0.025359634310007095,0.14159856736660004,0.09526006877422333
1685683423651299600,3.348299560546875,0.018081611022353172,0.1275835633277893,-0.02174680307507515
1685683423671299600,3.368299560546875,0.045553091913461685,0.13175490498542786,-0.0878424197435379
1685683423691301000,3.388301025390625,0.05801474303007126,0.19228293001651764,-0.05668829381465912
1685683423711299600,3.408299560546875,0.04853760451078415,0.16437511146068573,0.0008901178953237832
1685683423731299600,3.428299560546875,0.07182029634714127,0.11824605613946915,-0.02972295694053173
1685683423751299600,3.448299560546875,0.03949680179357529,0.01673770695924759,-0.03335324302315712
1685683423771299600,3.468299560546875,0.045989423990249634,-0.03881612420082092,0.0035604715812951326
1685683423791299600,3.488299560546875,0.057334065437316895,-0.10005972534418106,0.052377332001924515
1685683423811299600,3.508299560546875,0.05841616913676262,-0.09749408811330795,0.05347688868641853
1685683423831299600,3.528299560546875,0.029391344636678696,-0.04548327997326851,-0.00617846567183733
1685683423851299600,3.548299560546875,0.001518436474725604,-0.13721778988838196,-0.08499753475189209
1685683423871299600,3.568299560546875,0.011414453387260437,-0.1805543154478073,-0.09018116444349289
1685683423891299600,3.588299560546875,0.003054326167330146,-0.15201817452907562,-0.05230751633644104
1685683423911299600,3.608299560546875,0.008464846760034561,-0.02361430414021015,0.052290063351392746
1685683423931299600,3.628299560546875,0.0073129297234117985,0.034836772829294205,0.09424778074026108
1685683423951299600,3.648299560546875,0.0012391837080940604,0.03389429301023483,0.06569419056177139
1685683423971299600,3.668299560546875,0.0024260077625513077,0.012705996632575989,0.0328296422958374
1685683423991299600,3.688299560546875,-0.024696409702301025,0.008587019518017769,0.048572514206171036
1685683424011299600,3.708299560546875,-0.048031460493803024,-0.01624901592731476,0.016842426732182503
1685683424031299600,3.728299560546875,-0.054192472249269485,-0.026232298463582993,-0.06602580845355988
1685683424051299600,3.748299560546875,-0.0527089424431324,-0.02825688011944294,-0.12372639030218124
1685683424071299600,3.768299560546875,-0.04340633749961853,-0.0429176464676857,-0.05249950289726257
1685683424091299600,3.788299560546875,-0.062343161553144455,0.0014137167017906904,0.023980824276804924
1685683424111299600,3.808299560546875,-0.05921902135014534,-0.008203047327697277,0.07895869761705399
1685683424131299600,3.828299560546875,-0.030438542366027832,0.001029744278639555,0.12224286049604416
1685683424151299600,3.848299560546875,-0.02015855349600315,-0.0417657271027565,0.08342673629522324
1685683424171299600,3.868299560546875,-0.010035643354058266,-0.014451325871050358,0.0700051560997963
1685683424191299600,3.888299560546875,-0.022532200440764427,-0.006440265104174614,0.028413960710167885
1685683424211299600,3.908299560546875,-0.0131772356107831,-0.02347467839717865,0.006126105785369873
1685683424231299600,3.928299560546875,0.021938787773251534,-0.03522074595093727,-0.027227135375142097
1685683424251299600,3.948299560546875,0.02511528693139553,-0.05085889250040054,-0.05054473504424095
1685683424271299600,3.968299560546875,0.012130037881433964,-0.04380776360630989,-0.04132939502596855
1685683424291299600,3.988299560546875,0.02595304511487484,-0.038868483155965805,0.014817845076322556
1685683424311299600,4.008299560546875,0.005532693583518267,0.07993607968091965,0.07442083954811096
1685683424331299600,4.028299560546875,0.01581268385052681,0.028047440573573112,0.05489060655236244
1685683424351299600,4.048299560546875,-0.006457718089222908,-0.0010471974965184927,0.0213104709982872
1685683424371299600,4.068299560546875,-0.024382250383496284,-0.08314748853445053,-0.05585053563117981
1685683424391299600,4.088299560546875,-0.02773328125476837,-0.00874409917742014,-0.043737951666116714
1685683424411299600,4.108299560546875,-0.011972958222031593,-0.008342674002051353,-0.04602433368563652
1685683424431299600,4.128299560546875,-0.005759586580097675,-0.02661627158522606,-0.00609119888395071
1685683424451299600,4.148299560546875,0.010733774863183498,-0.07728318125009537,-0.010698867961764336
1685683424471299600,4.168299560546875,0.019338248297572136,-0.021293016150593758,-0.01895427517592907
1685683424491299600,4.188299560546875,0.025569073855876923,0.038152895867824554,-0.0029321531765162945
1685683424511299600,4.208299560546875,0.021694442257285118,0.009948376566171646,0.021467549726366997
1685683424531299600,4.228299560546875,0.001117010717280209,0.005899212788790464,-0.0019024088978767395
1685683424551299600,4.248299560546875,-0.008779006078839302,0.019146261736750603,-0.00769690191373229
1685683424571299600,4.268299560546875,-0.0030194194987416267,0.06361725181341171,-0.002024581888690591
1685683424591299600,4.288299560546875,-0.003281218931078911,0.028413960710167885,-0.03291691094636917
1685683424611299600,4.308299560546875,0.0010471974965184927,-0.011885692365467548,-0.028902651742100716
1685683424631299600,4.328299560546875,0.004852015525102615,-0.021327923983335495,0.0026354470755904913
1685683424651299600,4.348299560546875,0.011798425577580929,0.00015707963029854,0.038379788398742676
1685683424671299600,4.368299560546875,0.016859879717230797,0.010681414976716042,0.023945916444063187
1685683424691299600,4.388299560546875,0.011920598335564137,0.04712389037013054,0.04080579802393913
1685683424711299600,4.408299560546875,0.005515240598469973,0.05873033031821251,0.03787364438176155
1685683424731299600,4.428299560546875,0.00188495556358248,0.018832102417945862,0.0016057029133662581
1685683424751299600,4.448299560546875,0.0039618974551558495,-0.015830136835575104,-0.02028072625398636
1685683424771299600,4.468299560546875,-0.00013962633966002613,-0.04150392860174179,-0.03977605327963829
1685683424791299600,4.488299560546875,-0.010751227848231792,-0.00251327408477664,-0.036477379500865936
1685683424811299600,4.508299560546875,-0.011152653954923153,0.004188789986073971,-0.04677482321858406
1685683424831299600,4.528299560546875,0.0103672556579113,-0.020036378875374794,-0.011798425577580929
1685683424851299600,4.548299560546875,0.015132004395127296,-0.002722713630646467,0.03199188411235809
1685683424871299600,4.568299560546875,0.009337511844933033,-0.005166174378246069,0.05593780055642128
1685683424891299600,4.588299560546875,-0.002199114765971899,-0.02869321219623089,0.03661700710654259
1685683424911299600,4.608299560546875,-0.021624628454446793,-0.024015730246901512,0.017697637900710106
1685683424931299600,4.628299560546875,-0.03078760765492916,0.01825614459812641,0.008796459063887596
1685683424951299600,4.648299560546875,-0.04115486517548561,0.03321361541748047,-0.01665044017136097
1685683424971299600,4.668299560546875,-0.042271874845027924,-0.00921533815562725,-0.05925392732024193
1685683424991299600,4.688299560546875,-0.028640853241086006,-0.04473278671503067,-0.06979571282863617
1685683425011299600,4.708299560546875,0.002007128670811653,-0.049410272389650345,-0.013910274021327496
1685683425031299600,4.728299560546875,0.015533430501818657,-0.03459242731332779,0.06817255914211273
1685683425051299600,4.748299560546875,-0.0041015236638486385,-0.007888888008892536,0.0901637077331543
1685683425071299600,4.768299560546875,-0.02528982050716877,-0.0034732052590698004,0.03661700710654259
1685683425091299600,4.788299560546875,-0.029775317758321762,0.007103490177541971,-0.02946115843951702
1685683425111299600,4.808299560546875,-0.014119713567197323,0.007400196045637131,-0.06806784123182297
1685683425131299600,4.828299560546875,0.0007853981805965304,-0.0009250245057046413,-0.04735078290104866
1685683425151299600,4.848299560546875,-0.013700834475457668,0.016580628231167793,0.01776745170354843
1685683425171299600,4.868299560546875,-0.03286454826593399,0.021991148591041565,0.041346848011016846
1685683425191299600,4.888299560546875,-0.0303861815482378,0.03281218931078911,-0.01563815027475357
1685683425211299600,4.908299560546875,-0.002460914198309183,0.014049900695681572,-0.04982915148139
1685683425231299600,4.928299560546875,0.031293753534555435,0.030089477077126503,0.0062831854447722435
1685683425251299600,4.948299560546875,0.016702800989151,0.05619960278272629,0.048973940312862396
1685683425271299600,4.968299560546875,-0.007888888008892536,0.05302310362458229,0.03419100120663643
1685683425291299600,4.988299560546875,-0.03150319308042526,0.04461061581969261,-0.044540803879499435
1685683425311299600,5.008299560546875,-0.03893829509615898,0.0025307273026555777,-0.11714649945497513
1685683425331299600,5.028299560546875,-0.03900810703635216,-0.004345869645476341,-0.15077899396419525
1685683425351299600,5.048299560546875,-0.03211405873298645,-0.04075343906879425,-0.1520705372095108
1685683425371299600,5.068299560546875,-0.009721484035253525,-0.1328195482492447,-0.13519319891929626
1685683425391299600,5.088299560546875,-0.06455972790718079,-0.02275909297168255,-0.03211405873298645
1685683425411299600,5.108299560546875,-0.0757472887635231,0.11526153981685638,0.050562188029289246
1685683425431299600,5.128299560546875,-0.05743878707289696,0.1180889755487442,0.053965579718351364
1685683425451299600,5.148299560546875,-0.022741639986634254,-0.009878563694655895,-0.05187118425965309
1685683425471299600,5.168299560546875,-0.0035604715812951326,-0.12309807538986206,-0.10451031476259232
1685683425491299600,5.188299560546875,-0.011257373727858067,-0.12130038440227509,-0.01595230959355831
1685683425511299600,5.208299560546875,-0.02157226949930191,-0.08463101834058762,0.05527457594871521
1685683425531299600,5.228299560546875,-0.030264008790254593,-0.06352998316287994,-0.007016223389655352
1685683425551299600,5.248299560546875,-0.0207345113158226,-0.12054988741874695,-0.07449065148830414
1685683425571299600,5.268299560546875,-0.005550147034227848,-0.09854128956794739,0.00874409917742014
1685683425591299600,5.288299560546875,0.0011868239380419254,-0.055257122963666916,0.09805259853601456
1685683425611299600,5.308299560546875,0.02241002768278122,-0.06640977412462234,0.08344419300556183
1685683425631299600,5.328299560546875,0.031381018459796906,-0.019914206117391586,0.04394739121198654
1685683425651299600,5.348299560546875,0.019233528524637222,0.02007128670811653,0.03649483621120453
1685683425671299600,5.368299560546875,0.0018151424592360854,0.06311110407114029,0.022794000804424286
1685683425691299600,5.388299560546875,-0.018168877810239792,-0.0018500490114092827,-0.05757841095328331
1685683425711299600,5.408299560546875,-0.00815068744122982,-0.052778758108615875,-0.09899507462978363
1685683425731299600,5.428299560546875,0.02347467839717865,-0.010349802672863007,-0.028379052877426147
1685683425751299600,5.448299560546875,0.030595621094107628,-0.012060225009918213,0.04120722413063049
1685683425771299600,5.468299560546875,0.00855211354792118,-0.027628561481833458,0.055972710251808167
1685683425791299600,5.488299560546875,-0.0011519172694534063,-0.01926843449473381,0.03717551380395889
1685683425811299600,5.508299560546875,-0.003577925032004714,0.014660765416920185,0.009197885170578957
1685683425831299600,5.528299560546875,-0.0007853981805965304,-0.005061454605311155,-0.030752701684832573
1685683425851299600,5.548299560546875,0.003036872949451208,-0.020123645663261414,-0.04771730303764343
1685683425871299600,5.568299560546875,-0.0006806784076616168,-0.04279547184705734,-0.026110125705599785
1685683425891299600,5.588299560546875,-0.008133234456181526,0.0026179938577115536,-0.016598081216216087
1685683425911299600,5.608299560546875,-0.003263765713199973,-0.0019198621157556772,-0.04986405745148659
1685683425931299600,5.628299560546875,0.012322024442255497,-0.014782939106225967,-0.05372123420238495
1685683425951299600,5.648299560546875,0.03185226023197174,-0.06630505621433258,-0.005794493015855551
1685683425971299600,5.668299560546875,0.028204521164298058,-0.015498523600399494,0.04921828582882881
1685683425991299600,5.688299560546875,0.015149458311498165,-0.025132741779088974,0.041748274117708206
1685683426011301000,5.708301025390625,-0.000017453292457503267,0.0028797932900488377,-0.006946410518139601
1685683426031299600,5.728299560546875,0.0020943949930369854,0.016458455473184586,0.00617846567183733
1685683426051299600,5.748299560546875,0.0034732052590698004,0.05063199996948242,-0.003717551240697503
1685683426071299600,5.768299560546875,0.001117010717280209,0.003176499158143997,-0.08227481693029404
1685683426091299600,5.788299560546875,0.028501227498054504,-0.035639625042676926,-0.07899360358715057
1685683426111299600,5.808299560546875,0.05323254317045212,-0.043301619589328766,-0.003351032268255949
1685683426131299600,5.828299560546875,0.056496307253837585,-0.047455500811338425,0.07255333662033081
1685683426151299600,5.848299560546875,-0.04628613218665123,0.028623400256037712,0.061138883233070374
1685683426171299600,5.868299560546875,-0.028710665181279182,0.11671016365289688,0.061365775763988495
1685683426191301000,5.888301025390625,-0.00823795422911644,0.12189379334449768,0.011466813273727894
1685683426211301000,5.908301025390625,0.02272418700158596,0.050073496997356415,-0.06330309063196182
1685683426231299600,5.928299560546875,-0.013124875724315643,-0.051539573818445206,-0.1082976832985878
1685683426251299600,5.948299560546875,0.005742133129388094,-0.009337511844933033,-0.05365142226219177
1685683426271299600,5.968299560546875,0.03447025269269943,0.004625122528523207,-0.011885692365467548
1685683426291299600,5.988299560546875,0.04804891347885132,-0.03202679008245468,0.0010821041651070118
1685683426311299600,6.008299560546875,-0.010035643354058266,-0.06363470107316971,0.009651671163737774
1685683426331299600,6.028299560546875,-0.021851522848010063,0.01771509274840355,0.04450589418411255
1685683426351299600,6.048299560546875,-0.012688543647527695,0.03321361541748047,0.051487211138010025
1685683426371299600,6.068299560546875,-0.012496557086706161,-0.029164452105760574,-0.06148795038461685
1685683426391299600,6.088299560546875,-0.002007128670811653,-0.07475244998931885,-0.06628760695457458
1685683426411299600,6.108299560546875,-0.005201081279665232,-0.08442157506942749,-0.021868975833058357
1685683426431299600,6.128299560546875,-0.004049163777381182,-0.07075564563274384,0.015917403623461723
1685683426451299600,6.148299560546875,0.0027052604127675295,-0.025813419371843338,0.017697637900710106
1685683426471299600,6.168299560546875,0.01286307629197836,-0.0024085543118417263,0.01682497374713421
1685683426491299600,6.188299560546875,0.01120501384139061,0.024260075762867928,0.014782939106225967
1685683426511299600,6.208299560546875,-0.0041015236638486385,0.026302112266421318,-0.002478367416188121
1685683426531299600,6.228299560546875,-0.009040805511176586,0.0075747291557490826,-0.027035150676965714
1685683426551299600,6.248299560546875,0.0017627825727686286,-0.006457718089222908,-0.023369958624243736
1685683426571299600,6.268299560546875,0.023858651518821716,-0.04682718217372894,-0.0014486232539638877
1685683426591299600,6.288299560546875,0.030351275578141212,-0.03214896470308304,0.020559977740049362
1685683426611299600,6.308299560546875,0.019774580374360085,0.03747221827507019,0.031066861003637314
1685683426631301000,6.328301025390625,0.004014257341623306,0.0625176951289177,0.018587756901979446
1685683426651301000,6.348301025390625,-0.007435102481395006,0.012444197200238705,-0.01869247667491436
1685683426671299600,6.368299560546875,-0.004328416660428047,-0.06726498901844025,-0.04122467711567879
1685683426691299600,6.388299560546875,0.004642575979232788,-0.05461135134100914,0.00331612559966743
1685683426711299600,6.408299560546875,0.011972958222031593,-0.011763518676161766,0.036250486969947815
1685683426731299600,6.428299560546875,0.008447393774986267,0.024609142914414406,-0.005846852902323008
1685683426751299600,6.448299560546875,-0.004886921960860491,0.0026703537441790104,-0.024591689929366112
1685683426771299600,6.468299560546875,-0.011239920742809772,-0.0015707963611930609,-0.004014257341623306
1685683426791299600,6.488299560546875,-0.007435102481395006,-0.02485348843038082,0.01736602559685707
1685683426811299600,6.508299560546875,0.011414453387260437,-0.022706734016537666,0.03956661373376846
1685683426831299600,6.528299560546875,0.015062191523611546,0.01226966455578804,0.05661848187446594
1685683426851299600,6.548299560546875,-0.005305801052600145,0.026232298463582993,0.042498767375946045
1685683426871299600,6.568299560546875,-0.026371924206614494,0.017016960307955742,-0.01111774705350399
1685683426891299600,6.588299560546875,-0.03087487444281578,-0.021066123619675636,-0.05515240505337715
1685683426911299600,6.608299560546875,-0.012095131911337376,-0.05942846089601517,-0.03176499158143997
1685683426931299600,6.628299560546875,0.00563741335645318,-0.04646066576242447,0.024504423141479492
1685683426951299600,6.648299560546875,0.007208209950476885,-0.021694442257285118,0.0345749706029892
1685683426971299600,6.668299560546875,-0.00989601667970419,0.024748768657445908,0.03733259439468384
1685683426991299600,6.688299560546875,-0.027785642072558403,0.013735741376876831,0.027523841708898544
1685683427011299600,6.708299560546875,-0.0383099764585495,-0.030106930062174797,-0.02139773592352867
1685683427031299600,6.728299560546875,-0.034348078072071075,-0.039968039840459824,-0.029286624863743782
1685683427051301000,6.748301025390625,-0.040631264448165894,-0.028047440573573112,-0.003508111694827676
1685683427071299600,6.768299560546875,-0.040456730872392654,-0.0625176951289177,-0.017261305823922157
1685683427091299600,6.788299560546875,-0.033684853464365005,-0.025220006704330444,-0.014538592658936977
1685683427111299600,6.808299560546875,-0.03588397055864334,-0.01005309633910656,-0.0021816615480929613
1685683427131299600,6.828299560546875,-0.034173548221588135,-0.006300638429820538,0.005864306353032589
1685683427151299600,6.848299560546875,-0.02165953628718853,0.0040317103266716,-0.01665044017136097
1685683427171299600,6.868299560546875,-0.014695672318339348,0.034033920615911484,-0.016423547640442848
1685683427191299600,6.888299560546875,-0.03015928901731968,0.014346606098115444,-0.011484266258776188
1685683427211299600,6.908299560546875,-0.04260348528623581,-0.004433136433362961,-0.008639379404485226
1685683427231299600,6.928299560546875,-0.011693705804646015,0.006527531426399946,0.00830776710063219
1685683427251299600,6.948299560546875,0.028204521164298058,0.02445206232368946,0.06466444581747055
1685683427271299600,6.968299560546875,0.018936822190880775,0.10320131480693817,0.11812388151884079
1685683427291299600,6.988299560546875,-0.053215090185403824,0.11431906372308731,0.06745697557926178
1685683427311299600,7.008299560546875,-0.09166469424962997,0.024731315672397614,-0.07326892018318176
1685683427331299600,7.028299560546875,-0.07456046342849731,-0.021764256060123444,-0.15575318038463593
1685683427351299600,7.048299560546875,-0.009197885170578957,0.03902556374669075,-0.01392772700637579
1685683427371299600,7.068299560546875,0.015306537039577961,0.10819295793771744,0.060789816081523895
1685683427391299600,7.088299560546875,0.009808750823140144,-0.14510667324066162,-0.05555383116006851
1685683427411299600,7.108299560546875,-0.002687806962057948,-0.16262978315353394,-0.053791046142578125
1685683427431299600,7.128299560546875,-0.05225515738129616,-0.033510319888591766,0.02874557301402092
1685683427451299600,7.148299560546875,-0.07723081856966019,0.031206486746668816,0.051661744713783264
1685683427471299600,7.168299560546875,-0.062168627977371216,0.007592182140797377,-0.040334559977054596
1685683427491299600,7.188299560546875,-0.004607669077813625,-0.05792747810482979,0.0034208453726023436
1685683427511299600,7.208299560546875,0.03406882658600807,0.03724532574415207,0.16006414592266083
1685683427531299600,7.228299560546875,0.0228987205773592,-0.06937684118747711,0.07065092772245407
1685683427551299600,7.248299560546875,0.025499260053038597,-0.09438740462064743,0.06066764518618584
1685683427571299600,7.268299560546875,0.006195918656885624,0.0970577597618103,0.10089748352766037
1685683427591299600,7.288299560546875,-0.005846852902323008,0.19287633895874023,0.09683086723089218
1685683427611299600,7.308299560546875,-0.005044001620262861,0.14208725094795227,0.03378957509994507
1685683427631299600,7.328299560546875,0.02275909297168255,0.046041786670684814,0.016912240535020828
1685683427651299600,7.348299560546875,0.030106930062174797,0.06377433240413666,0.05604252219200134
1685683427671299600,7.368299560546875,0.03246312215924263,0.002722713630646467,0.003752457909286022
1685683427691299600,7.388299560546875,0.04468042775988579,0.01682497374713421,-0.03951425477862358
1685683427711299600,7.408299560546875,0.06527531147003174,0.024836035445332527,0.006003932561725378
1685683427731299600,7.428299560546875,0.03618067502975464,-0.014940018765628338,0.028501227498054504
1685683427751299600,7.448299560546875,-0.007749261800199747,-0.13411110639572144,-0.02609267272055149
1685683427771299600,7.468299560546875,-0.019984019920229912,-0.10814060270786285,-0.012950343079864979
1685683427791299600,7.488299560546875,-0.00024434609804302454,0.005654866807162762,0.04862487316131592
1685683427811299600,7.508299560546875,-0.004712388850748539,0.06408849358558655,0.03876376152038574
1685683427831299600,7.528299560546875,-0.030613074079155922,-0.03438298776745796,-0.0269304309040308
1685683427851299600,7.548299560546875,-0.035639625042676926,-0.0878598764538765,-0.10355038195848465
1685683427871299600,7.568299560546875,-0.02542944625020027,-0.07464773207902908,-0.1321912407875061
1685683427891299600,7.588299560546875,-0.015097098425030708,-0.08826129883527756,-0.09365436434745789
1685683427911299600,7.608299560546875,-0.00548033369705081,-0.09646435081958771,-0.0002617993741296232
1685683427931299600,7.628299560546875,-0.013665927574038506,-0.04801400750875473,0.05482079088687897
1685683427951299600,7.648299560546875,-0.03883357718586922,0.0026354470755904913,0.06836454570293427
1685683427971299600,7.668299560546875,-0.05337216705083847,0.04632103815674782,0.02267182618379593
1685683427991299600,7.688299560546875,-0.04415683075785637,0.03396410867571831,-0.0031415927223861217
1685683428011299600,7.708299560546875,-0.03237585723400116,0.028326693922281265,-0.044715333729982376
1685683428031299600,7.728299560546875,-0.009599311277270317,-0.04230678081512451,-0.07770206034183502
1685683428051299600,7.748299560546875,0.003857177682220936,-0.059899698942899704,-0.05614724010229111
1685683428071299600,7.768299560546875,0.03335324302315712,-0.06358234584331512,-0.018814649432897568
1685683428091299600,7.788299560546875,0.029164452105760574,-0.023352505639195442,0.0010646508308127522
1685683428111299600,7.808299560546875,0.04197516664862633,-0.0022689281031489372,0.03277728334069252
1685683428131299600,7.828299560546875,0.025132741779088974,0.0728849470615387,0.09485864639282227
1685683428151299600,7.848299560546875,0.03162536770105362,0.0406138114631176,0.048973940312862396
1685683428171299600,7.868299560546875,0.005794493015855551,0.04022983834147453,0.02295107953250408
1685683428191299600,7.888299560546875,0.016091935336589813,0.014870204962790012,-0.00251327408477664
1685683428211299600,7.908299560546875,0.03223622962832451,0.07211700081825256,-0.014451325871050358
1685683428231299600,7.928299560546875,0.04438372328877449,0.07726572453975677,-0.017749998718500137
1685683428251299600,7.948299560546875,0.05318018049001694,0.06248278543353081,0.01218239776790142
1685683428271299600,7.968299560546875,-0.016004668548703194,0.04979424178600311,0.024609142914414406
1685683428291299600,7.988299560546875,0.01136209350079298,0.12105603516101837,0.07688175141811371
1685683428311299600,8.008299560546876,-0.009634217247366905,-0.00823795422911644,0.02684316411614418
1685683428331299600,8.028299560546875,-0.06679374724626541,0.031206486746668816,-0.011466813273727894
1685683428351299600,8.048299560546875,0.002722713630646467,0.022619467228651047,0.006841690745204687
1685683428371299600,8.068299560546874,-0.020315632224082947,-0.008482299745082855,0.0019373154500499368
1685683428391299600,8.088299560546876,-0.019303342327475548,-0.0342782661318779,0.009878563694655895
1685683428411299600,8.108299560546875,-0.012845623306930065,-0.03614576905965805,0.00043633230961859226
1685683428431299600,8.128299560546875,-0.009651671163737774,-0.11138691008090973,-0.03666936606168747
1685683428451299600,8.148299560546874,-0.03033382259309292,-0.09365436434745789,-0.0437728576362133
1685683428471299600,8.168299560546876,-0.045640360563993454,-0.15215779840946198,-0.00808087456971407
1685683428491299600,8.188299560546875,-0.03651228919625282,-0.15924383699893951,0.03883357718586922
1685683428511299600,8.208299560546875,-0.0023387412074953318,-0.21312215924263,0.025673793628811836
1685683428531299600,8.228299560546875,0.008115780539810658,-0.20673425495624542,0.0019547687843441963
1685683428551299600,8.248299560546876,-0.0033335788175463676,-0.2911907434463501,-0.016144296154379845
1685683428571299600,8.268299560546875,0.013386675156652927,-0.17619098722934723,0.06382668763399124
1685683428591299600,8.288299560546875,-0.00010471975838299841,-0.21497219800949097,0.11271335929632187
1685683428611299600,8.308299560546875,-0.06031857803463936,-0.05599016323685646,0.10400416702032089
1685683428631299600,8.328299560546874,-0.06930702179670334,0.12868312001228333,0.06503096967935562
1685683428651299600,8.348299560546875,-0.033597588539123535,0.16254250705242157,0.05815437063574791
1685683428671299600,8.368299560546875,-0.016702800989151,0.12398818880319595,0.016004668548703194
1685683428691299600,8.388299560546875,0.025359634310007095,0.167062908411026,0.04747295379638672
1685683428711299600,8.408299560546874,0.028623400256037712,0.32763320207595825,0.15275122225284576
1685683428731299600,8.428299560546876,-0.01357866171747446,0.511678159236908,0.09714502841234207
1685683428751299600,8.448299560546875,0.03841469809412956,0.41142645478248596,-0.004869468510150909
1685683428771299600,8.468299560546875,0.08185594528913498,0.2652376890182495,-0.032358404248952866
1685683428791299600,8.488299560546874,0.07651523500680923,0.2943323254585266,0.062343161553144455
1685683428811299600,8.508299560546876,0.003979350905865431,0.12629202008247375,0.07641051709651947
1685683428831299600,8.528299560546875,-0.11337658762931824,0.0010471974965184927,-0.03972369432449341
1685683428851299600,8.548299560546875,-0.1244419738650322,0.13615313172340393,-0.11459831893444061
1685683428871299600,8.568299560546874,0.0016231562476605177,0.14437364041805267,-0.02480112947523594
1685683428891299600,8.588299560546876,-0.004904375411570072,-0.02586578018963337,-0.032183870673179626
1685683428911299600,8.608299560546875,0.03263765573501587,-0.36627480387687683,0.09295623749494553
1685683428931299600,8.628299560546875,0.027890361845493317,-0.39556142687797546,0.26542967557907104
1685683428951299600,8.648299560546874,0.00945968460291624,-0.5009618401527405,0.27289968729019165
1685683428971299600,8.668299560546876,-0.024923302233219147,-0.6393664479255676,0.254556268453598
1685683428991299600,8.688299560546875,-0.011920598335564137,-0.6114411950111389,0.1436929553747177
1685683429011299600,8.708299560546875,-0.007923794910311699,-0.4200134873390198,0.04178318381309509
1685683429031299600,8.728299560546875,0.036163222044706345,-0.0639314129948616,-0.008848818950355053
1685683429051299600,8.748299560546876,0.0354301854968071,0.1114741787314415,-0.06506587564945221
1685683429071299600,8.768299560546875,0.01408480666577816,0.07784168422222137,-0.04145156964659691
1685683429091299600,8.788299560546875,-0.01096066739410162,0.0046774824149906635,0.012042772024869919
1685683429111299600,8.808299560546875,-0.01417207345366478,-0.03499384969472885,0.05311036854982376
1685683429131299600,8.828299560546874,-0.028152160346508026,0.06436774134635925,0.018046705052256584
1685683429151299600,8.848299560546875,-0.04300491139292717,-0.008203047327697277,-0.02143264375627041
1685683429171299600,8.868299560546875,-0.053354714065790176,-0.07543312758207321,-0.05169665068387985
1685683429191299600,8.888299560546875,-0.05595525726675987,-0.11470303684473038,-0.09337511658668518
1685683429211299600,8.908299560546874,-0.07642796635627747,-0.16058774292469025,-0.1261349469423294
1685683429231299600,8.928299560546876,-0.0691499412059784,-0.1313534826040268,-0.06038839370012283
1685683429251299600,8.948299560546875,-0.0601964071393013,-0.07876671105623245,-0.08503244072198868
1685683429271299600,8.968299560546875,-0.053040556609630585,0.02028072625398636,-0.17528341710567474
1685683429291299600,8.988299560546874,-0.026057764887809753,0.06269222497940063,-0.22430971264839172
1685683429311299600,9.008299560546876,-0.03556980937719345,-0.009442231617867947,-0.23815017938613892
1685683429331299600,9.028299560546875,-0.03689625859260559,0.017732545733451843,-0.2099980115890503
1685683429351299600,9.048299560546875,-0.06979571282863617,0.052377332001924515,-0.18985691666603088
1685683429371299600,9.068299560546874,-0.13177235424518585,-0.059061940759420395,-0.16008159518241882
1685683429391299600,9.088299560546876,-0.18252652883529663,-0.14472270011901855,-0.1287703961133957
1685683429411299600,9.108299560546875,-0.14006267488002777,-0.18362608551979065,-0.039653878659009933
1685683429431299600,9.128299560546875,-0.07771950960159302,-0.019146261736750603,0.013788101263344288
1685683429451299600,9.148299560546874,-0.05550146847963333,0.02143264375627041,0.04841543361544609
1685683429471299600,9.168299560546876,-0.0578925721347332,-0.10735519975423813,-0.017575465142726898
1685683429491299600,9.188299560546875,-0.057246800512075424,-0.4757592976093292,0.004712388850748539
1685683429511299600,9.208299560546875,-0.10152580589056015,-0.24987879395484924,0.0016057029133662581
1685683429531299600,9.228299560546875,-0.08176867663860321,0.05487314984202385,0.0020420351065695286
1685683429551299600,9.248299560546876,-0.07812093943357468,0.27005478739738464,0.054332099854946136
1685683429571299600,9.268299560546875,-0.06314601004123688,0.1702394187450409,0.1221032366156578
1685683429591299600,9.288299560546875,-0.03157300502061844,0.10458012670278549,0.11107275635004044
1685683429611301000,9.308301025390625,0.0455007329583168,-0.005829399451613426,0.10759954899549484
1685683429631299600,9.328299560546874,0.1414240300655365,0.02356194518506527,0.04401720315217972
1685683429651299600,9.348299560546875,0.1345299780368805,0.09283406287431717,-0.0717155784368515
1685683429671299600,9.368299560546875,0.08337438106536865,0.07597418129444122,-0.10035642981529236
1685683429691299600,9.388299560546875,0.07731808722019196,0.09431759268045425,-0.09513789415359497
1685683429711299600,9.408299560546874,0.08827875554561615,0.035674531012773514,-0.03989822790026665
1685683429731299600,9.428299560546876,0.0457974411547184,0.06967354565858841,-0.009616764262318611
1685683429751299600,9.448299560546875,0.010576695203781128,0.10573204606771469,-0.020176006481051445
1685683429771299600,9.468299560546875,-0.05602506920695305,0.045989423990249634,-0.012548916973173618
1685683429791299600,9.488299560546874,-0.08747590333223343,-0.08665559440851212,-0.10920525342226028
1685683429811299600,9.508299560546876,-0.007295476272702217,0.05408775433897972,-0.021537363529205322
1685683429831299600,9.528299560546875,0.10393435508012772,0.08197811245918274,0.03663446009159088
1685683429851299600,9.548299560546875,0.23150047659873962,-0.05771803855895996,0.03387684002518654
1685683429871299600,9.568299560546874,0.27089256048202515,-0.22881266474723816,-0.006422811653465033
1685683429891299600,9.588299560546876,0.07614871859550476,0.043912485241889954,-0.04124213010072708
1685683429911299600,9.608299560546875,-0.06473426520824432,0.08609709143638611,0.05293583497405052
1685683429931299600,9.628299560546875,-0.1650732457637787,-0.06810274720191956,0.04920083284378052
1685683429951299600,9.648299560546874,-0.20402899384498596,-0.09323548525571823,0.04689699783921242
1685683429971299600,9.668299560546876,-0.1771334707736969,-0.0688357874751091,0.13117894530296326
1685683429991299600,9.688299560546875,-0.20031143724918365,0.07630579173564911,0.14177308976650238
1685683430011301000,9.708301025390625,-0.1310218721628189,0.122714102268219,0.12468632310628891
1685683430031301000,9.728301025390625,0.0052534411661326885,0.15596261620521545,0.12578587234020233
1685683430051299600,9.748299560546876,0.06396631896495819,0.3331659138202667,0.14931291341781616
1685683430071299600,9.768299560546875,0.10150834918022156,0.29276153445243835,0.017523106187582016
1685683430091299600,9.788299560546875,0.18502235412597656,0.07291985303163528,-0.13590878248214722
1685683430111299600,9.808299560546875,0.24261821806430817,-0.016982054337859154,-0.06173229590058327
1685683430131299600,9.828299560546874,0.1777443289756775,-0.10026916861534119,0.03263765573501587
1685683430151299600,9.848299560546875,0.14683455228805542,-0.07059856504201889,0.07552039623260498
1685683430171299600,9.868299560546875,0.11013027280569077,0.05347688868641853,0.02940879762172699
1685683430191299600,9.888299560546875,0.10286970436573029,-0.033370696008205414,0.060562923550605774
1685683430211299600,9.908299560546874,0.018483037129044533,0.021101031452417374,0.11369074881076813
1685683430231299600,9.928299560546876,-0.01975712738931179,0.05845107510685921,0.13583897054195404
1685683430251299600,9.948299560546875,-0.14463543891906738,-0.0302465558052063,0.16688838601112366
1685683430271299600,9.968299560546875,-0.21464058756828308,-0.013875367119908333,0.17348572611808777
1685683430291299600,9.988299560546874,-0.17235125601291656,-0.01567305624485016,0.1466076523065567
1685683430311299600,10.008299560546876,-0.13234831392765045,-0.08829620480537415,0.037751469761133194
1685683430331299600,10.028299560546875,-0.15947073698043823,-0.04684463515877724,-0.0509810671210289
1685683430351299600,10.048299560546875,-0.04246386140584946,-0.024521876126527786,0.010437068529427052
1685683430371299600,10.068299560546874,0.1785820871591568,0.1704837679862976,-0.056740652769804
1685683430391299600,10.088299560546876,0.45755550265312195,0.00376991112716496,-0.2822197377681732
1685683430411299600,10.108299560546875,0.34208452701568604,0.1117534339427948,-0.39968040585517883
1685683430431299600,10.128299560546875,0.2307499796152115,0.2673669755458832,-0.39390334486961365
1685683430451299600,10.148299560546874,0.01226966455578804,0.6529451012611389,-0.2986607551574707
1685683430471299600,10.168299560546876,0.12754866480827332,0.4455825686454773,-0.2735978066921234
1685683430491299600,10.188299560546875,0.09730210900306702,0.50357985496521,-0.3606373965740204
1685683430511299600,10.208299560546875,0.2569473683834076,0.25069910287857056,-0.3313158452510834
1685683430531299600,10.228299560546875,0.3999771177768707,0.05106833204627037,-0.21015509963035583
1685683430551299600,10.248299560546876,0.24754004180431366,-0.04902629926800728,-0.1909390240907669
1685683430571299600,10.268299560546875,0.07408922910690308,-0.07178539037704468,-0.06949900835752487
1685683430591299600,10.288299560546875,0.07810348272323608,-0.15505504608154297,0.07822565734386444
1685683430611299600,10.308299560546875,0.05288347601890564,-0.22392573952674866,0.1684940904378891
1685683430631301000,10.328301025390624,-0.04352851212024689,-0.30806806683540344,0.15601497888565063
1685683430651299600,10.348299560546875,-0.14268065989017487,-0.32559117674827576,0.07328637689352036
1685683430671299600,10.368299560546875,-0.1581617295742035,-0.25446900725364685,-0.05431464686989784
1685683430691299600,10.388299560546875,-0.15748105943202972,-0.12985248863697052,-0.15400785207748413
1685683430711299600,10.408299560546874,-0.19792033731937408,-0.3044377863407135,-0.17158332467079163
1685683430731299600,10.428299560546876,-0.3167423605918884,-0.5136852860450745,-0.03565707802772522
1685683430751299600,10.448299560546875,-0.1468869149684906,-0.026773350313305855,-0.016510814428329468
1685683430771299600,10.468299560546875,-0.08040732145309448,-0.06352998316287994,-0.012740903533995152
1685683430791299600,10.488299560546874,0.019477874040603638,-0.055606190115213394,-0.03981095924973488
1685683430811299600,10.508299560546876,0.167062908411026,0.004869468510150909,-0.06344271451234818
1685683430831299600,10.528299560546875,0.20902062952518463,-0.012496557086706161,0.018675023689866066
1685683430851299600,10.548299560546875,0.13948671519756317,-0.04016002640128136,0.02382374368607998
1685683430871299600,10.568299560546874,0.13240067660808563,-0.08426449447870255,0.03183480724692345
1685683430891299600,10.588299560546876,0.09229300916194916,-0.046670105308294296,0.05895722284913063
1685683430911299600,10.608299560546875,0.08885471522808075,0.0538608618080616,0.2399653196334839
1685683430931299600,10.628299560546875,0.05209807679057121,0.10971139371395111,0.3332008123397827
1685683430951299600,10.648299560546874,0.003857177682220936,0.05630432069301605,0.28619909286499023
1685683430971299600,10.668299560546876,-0.06532767415046692,0.030403634533286095,0.23940680921077728
1685683430991299600,10.688299560546875,-0.06075491011142731,-0.041434116661548615,0.14594443142414093
1685683431011299600,10.708299560546875,-0.017907077446579933,-0.12810716032981873,0.16226325929164886
1685683431031299600,10.728299560546875,-0.07906341552734375,-0.08833111077547073,0.1857903003692627
1685683431051299600,10.748299560546876,-0.07817329466342926,0.057299159467220306,0.06574655324220657
1685683431071299600,10.768299560546875,0.028204521164298058,0.09386380761861801,-0.06117378920316696
1685683431091299600,10.788299560546875,0.08395033329725266,0.04747295379638672,-0.10213666409254074
1685683431111299600,10.808299560546875,0.15604989230632782,-0.025830872356891632,-0.12639674544334412
1685683431131301000,10.828301025390624,0.1621236354112625,0.00799360778182745,-0.0924500897526741
1685683431151299600,10.848299560546875,0.022532200440764427,0.024905849248170853,-0.06262241303920746
1685683431171299600,10.868299560546875,-0.07225663214921951,0.013491394929587841,-0.06492624431848526
1685683431191299600,10.888299560546875,-0.12657128274440765,0.275988906621933,-0.08307766914367676
1685683431211299600,10.908299560546874,-0.1679006665945053,0.2145358771085739,-0.11241665482521057
1685683431231299600,10.928299560546876,-0.12910200655460358,0.014433872886002064,-0.15304791927337646
1685683431251299600,10.948299560546875,-0.10894345492124557,-0.0286583062261343,-0.1676214188337326
1685683431271299600,10.968299560546875,-0.14395475387573242,0.05736897140741348,-0.23338542878627777
1685683431291299600,10.988299560546874,-0.1500808596611023,0.15193091332912445,-0.22163936495780945
1685683431311299600,11.008299560546876,-0.19767598807811737,0.4496317207813263,-0.27813565731048584
1685683431331299600,11.028299560546875,-0.33082714676856995,1.0095857381820679,-0.4056145250797272
1685683431351299600,11.048299560546875,-0.3151017427444458,0.9287943840026855,-0.5411393046379089
1685683431371299600,11.068299560546874,-0.27291712164878845,0.6916565299034119,-0.7014827132225037
1685683431391299600,11.088299560546876,-0.05324999615550041,1.4748730659484863,-0.7671419978141785
1685683431411299600,11.108299560546875,-0.23305381834506989,2.464474678039551,-1.3960539102554321
1685683431431299600,11.128299560546875,-0.0950331762433052,-2.0585460662841797,0.4604876637458801
1685683431451299600,11.148299560546874,0.05843362212181091,-1.1551287174224854,0.15793484449386597
1685683431471299600,11.168299560546876,0.02551671303808689,-0.4109726846218109,0.06698573380708694
1685683431491299600,11.188299560546875,-0.04625122621655464,-0.6071651577949524,0.0941954180598259
1685683431511299600,11.208299560546875,0.028797931969165802,-0.74204421043396,0.1120326817035675
1685683431531299600,11.228299560546875,0.057822756469249725,-0.6783920526504517,0.1658760905265808
1685683431551299600,11.248299560546876,0.009564404375851154,-0.566149890422821,0.08623671531677246
1685683431571299600,11.268299560546875,-0.0768992081284523,0.09089674800634384,0.06621779501438141
1685683431591299600,11.288299560546875,-0.06005677953362465,0.029338983818888664,-0.03179989755153656
1685683431611299600,11.308299560546875,-0.05080653354525566,0.04951499029994011,-0.10246828198432922
1685683431631299600,11.328299560546874,0.025481807067990303,-0.04427900165319443,-0.13604842126369476
1685683431651301000,11.348301025390626,0.0547160729765892,-0.06201154738664627,-0.09248499572277069
1685683431671299600,11.368299560546875,0.02888519875705242,-0.011571533046662807,-0.06445500999689102
1685683431691299600,11.388299560546875,0.06963863968849182,-0.04071853309869766,-0.013875367119908333
1685683431711299600,11.408299560546874,0.0161268413066864,0.05035274848341942,0.05138249322772026
1685683431731299600,11.428299560546876,0.05567600205540657,0.05112069472670555,0.10060077905654907
1685683431751299600,11.448299560546875,0.11716394871473312,0.04824090003967285,0.10862929373979568
1685683431771299600,11.468299560546875,0.18256144225597382,-0.05956808850169182,0.08534660190343857
1685683431791299600,11.488299560546874,0.22020819783210754,-0.03122393973171711,0.06934192776679993
1685683431811301000,11.508301025390624,0.22827161848545074,-0.049323003739118576,0.04141666367650032
1685683431831301000,11.528301025390626,0.17666222155094147,-0.020001472905278206,-0.020141098648309708
1685683431851299600,11.548299560546875,0.18154914677143097,-0.11412707716226578,-0.12205087393522263
1685683431871299600,11.568299560546874,0.22703242301940918,-0.3384717106819153,-0.17840754985809326
1685683431891299600,11.588299560546876,0.16278685629367828,-0.36154496669769287,-0.07105235010385513
1685683431911299600,11.608299560546875,0.013089969754219055,0.01242674421519041,0.1696110963821411
1685683431931299600,11.628299560546875,-0.11444123834371567,0.07005751878023148,0.22331488132476807
1685683431951299600,11.648299560546874,-0.08471827954053879,0.04167846217751503,0.17952457070350647
1685683431971299600,11.668299560546876,-0.0627969428896904,0.02042035199701786,0.08000589162111282
1685683431991299600,11.688299560546875,0.03752457723021507,-0.00502654816955328,-0.01127482671290636
1685683432011299600,11.708299560546875,0.05035274848341942,0.015114551410079002,-0.011414453387260437
1685683432031299600,11.728299560546875,0.04352851212024689,0.0037000980228185654,0.05152212083339691
1685683432051299600,11.748299560546876,0.10606365650892258,-0.053703781217336655,0.047856926918029785
1685683432071301000,11.768301025390626,0.10452777147293091,-0.06979571282863617,0.007051130291074514
1685683432091299600,11.788299560546875,0.11128219217061996,-0.13639748096466064,-0.03738495334982872
1685683432111299600,11.808299560546875,0.07119198143482208,-0.028239427134394646,-0.019687313586473465
1685683432131299600,11.828299560546874,0.019460421055555344,0.03307398781180382,0.027960173785686493
1685683432151299600,11.848299560546875,0.0013613568153232336,0.0821002870798111,0.05150466784834862
1685683432171299600,11.868299560546875,0.058224182575941086,0.06063273921608925,0.06031857803463936
1685683432191299600,11.888299560546875,0.07557275891304016,0.0990823432803154,0.1143539696931839
1685683432211299600,11.908299560546874,0.18849556148052216,0.3121695816516876,0.0973370149731636
1685683432231299600,11.928299560546876,0.22746875882148743,0.4976980984210968,0.08676031976938248
1685683432251299600,11.948299560546875,0.11283553391695023,0.7441385984420776,0.020978856831789017
1685683432271299600,11.968299560546875,0.05009094998240471,0.640082061290741,0.0024260077625513077
1685683432291299600,11.988299560546874,0.022305307909846306,0.8081223368644714,-0.04974188283085823
1685683432311299600,12.008299560546876,-0.08880235254764557,0.7806333899497986,-0.052324969321489334
1685683432331299600,12.028299560546875,-0.15074408054351807,0.4378507435321808,-0.04000294581055641
1685683432351299600,12.048299560546875,-0.15074408054351807,0.04518657550215721,0.08389797806739807
1685683432371299600,12.068299560546874,-0.06909758597612381,0.01326450239866972,0.1794198453426361
1685683432391299600,12.088299560546876,-0.02670353837311268,0.006667157635092735,0.2361779510974884
1685683432411299600,12.108299560546875,0.01457349956035614,-0.012339477427303791,0.3235316872596741
1685683432431299600,12.128299560546875,0.039304815232753754,-0.03794345632195473,0.3791029751300812
1685683432451299600,12.148299560546874,0.021589722484350204,-0.02617993950843811,0.3222925066947937
1685683432471299600,12.168299560546876,-0.019338248297572136,-0.011885692365467548,0.26108381152153015
1685683432491299600,12.188299560546875,-0.05009094998240471,-0.005759586580097675,0.2027548998594284
1685683432511299600,12.208299560546875,-0.055833082646131516,0.021991148591041565,0.1696110963821411
1685683432531299600,12.228299560546875,-0.025446901097893715,0.0024085543118417263,0.11353366822004318
1685683432551299600,12.248299560546876,0.0677013248205185,-0.033370696008205414,0.04792674258351326
1685683432571299600,12.268299560546875,0.09738937020301819,-0.08000589162111282,0.03637266159057617
1685683432591299600,12.288299560546875,0.03989822790026665,-0.08096582442522049,0.006405358202755451
1685683432611301000,12.308301025390625,-0.030752701684832573,-0.07421139627695084,0.018971728160977364
1685683432631299600,12.328299560546874,-0.1149299293756485,-0.01473057921975851,0.02471386268734932
1685683432651299600,12.348299560546875,-0.14702653884887695,-0.05429719388484955,0.01342158205807209
1685683432671299600,12.368299560546875,-0.1633453667163849,-0.04295255243778229,-0.0901462584733963
1685683432691299600,12.388299560546875,-0.17027431726455688,-0.0492531917989254,-0.11140436679124832
1685683432711299600,12.408299560546874,-0.19371409714221954,-0.041032690554857254,-0.050160761922597885
1685683432731299600,12.428299560546876,-0.23054054379463196,0.015097098425030708,-0.027890361845493317
1685683432751299600,12.448299560546875,-0.20490165054798126,0.014067353680729866,-0.04214970022439957
1685683432771299600,12.468299560546875,-0.16753415763378143,-0.15568336844444275,-0.0337023064494133
1685683432791299600,12.488299560546874,-0.12192869931459427,-0.2730218470096588,-0.02644173800945282
1685683432811299600,12.508299560546876,-0.0910363718867302,-0.31381019949913025,-0.003351032268255949
1685683432831299600,12.528299560546875,-0.017208946868777275,-0.21238911151885986,-0.13493140041828156
1685683432851299600,12.548299560546875,-0.004764748737215996,-0.06550220400094986,-0.17174039781093597
1685683432871299600,12.568299560546874,-0.03099704720079899,-0.43158501386642456,-0.16488125920295715
1685683432891299600,12.588299560546876,-0.07490953058004379,-0.21135936677455902,-0.13608331978321075
1685683432911299600,12.608299560546875,-0.05089380219578743,-0.0015707963611930609,-0.11178833991289139
1685683432931299600,12.628299560546875,-0.053005650639534,0.027663469314575195,-0.04401720315217972
1685683432951299600,12.648299560546874,-0.028187068179249763,-0.0026179938577115536,-0.02370157092809677
1685683432971299600,12.668299560546876,-0.03645992651581764,-0.004817108623683453,-0.03712315484881401
1685683432991299600,12.688299560546875,-0.07131415605545044,0.011641345918178558,0.03724532574415207
1685683433011299600,12.708299560546875,-0.10351547598838806,0.033597588539123535,0.10578440874814987
1685683433031299600,12.728299560546875,-0.06478662043809891,0.02431243658065796,0.07269296050071716
1685683433051299600,12.748299560546876,-0.011693705804646015,0.03136356547474861,0.03378957509994507
1685683433071299600,12.768299560546875,-0.003630284918472171,0.013753194361925125,0.02816961333155632
1685683433091299600,12.788299560546875,0.04387757554650307,0.04274311289191246,0.07504915446043015
1685683433111299600,12.808299560546875,0.04974188283085823,-0.0010122909443452954,0.03464478626847267
1685683433131299600,12.828299560546874,-0.008604473434388638,0.02984512969851494,-0.013823007233440876
1685683433151299600,12.848299560546875,0.023771384730935097,0.016755159944295883,-0.08328711241483688
1685683433171299600,12.868299560546875,0.01794198527932167,0.017872171476483345,-0.08888962119817734
1685683433191299600,12.888299560546875,-0.004939281847327948,0.02453932911157608,-0.07293730974197388
1685683433211299600,12.908299560546874,-0.05590289458632469,0.028379052877426147,0.05400048568844795
1685683433231299600,12.928299560546876,-0.13093459606170654,0.05637413635849953,0.07457792013883591
1685683433251299600,12.948299560546875,-0.14938272535800934,0.03649483621120453,0.04872959107160568
1685683433271299600,12.968299560546875,-0.16020376980304718,0.03223622962832451,0.020559977740049362
1685683433291299600,12.988299560546874,-0.12681561708450317,0.006213372107595205,-0.035761795938014984
1685683433311299600,13.008299560546876,-0.0863937959074974,-0.01202531810849905,-0.07641051709651947
1685683433331299600,13.028299560546875,-0.04878195375204086,-0.010890854522585869,-0.07909832149744034
1685683433351299600,13.048299560546875,-0.02724459022283554,0.003577925032004714,-0.056356679648160934
1685683433371299600,13.068299560546874,-0.02799508161842823,0.0103672556579113,-0.04122467711567879
1685683433391299600,13.088299560546876,-0.05536184459924698,0.020088739693164825,-0.017907077446579933
1685683433411299600,13.108299560546875,-0.08314748853445053,0.024696409702301025,-0.0026529005263000727
1685683433431299600,13.128299560546875,-0.09971065819263458,0.0262148454785347,0.0010471974965184927
1685683433451299600,13.148299560546874,-0.08850564807653427,0.014311700128018856,-0.02342231757938862
1685683433471299600,13.168299560546876,-0.058224182575941086,-0.003543018363416195,-0.07110471278429031
1685683433491299600,13.188299560546875,-0.05630432069301605,0.0013264502631500363,-0.08799950033426285
1685683433511299600,13.208299560546875,-0.05585053563117981,-0.00019198621157556772,-0.0826762467622757
1685683433531299600,13.228299560546875,-0.059864792972803116,0.007661995477974415,-0.08471827954053879
1685683433551299600,13.248299560546876,-0.05176646634936333,-0.015358896926045418,-0.0771959125995636
1685683433571299600,13.268299560546875,-0.07038912922143936,-0.009372417815029621,-0.06489133834838867
1685683433591306000,13.288305908203125,-0.05777039751410484,-0.23139575123786926,-0.014206980355083942
1685683433611299600,13.308299560546875,-0.05956808850169182,-0.395823210477829,-0.12308061867952347
1685683433631299600,13.328299560546874,-0.039130281656980515,-0.028187068179249763,-0.04558800160884857
1685683433651299600,13.348299560546875,-0.06497860699892044,-0.007609635591506958,0.008587019518017769
1685683433671299600,13.368299560546875,-0.036704275757074356,-0.014294246211647987,-0.008203047327697277
1685683433691299600,13.388299560546875,-0.005619960371404886,-0.3153111934661865,-0.09155996888875961
1685683433711299600,13.408299560546874,0.03230604529380798,-0.22413517534732819,-0.07476990669965744
1685683433731299600,13.428299560546876,0.03525565192103386,-0.02520255371928215,-0.013124875724315643
1685683433751299600,13.448299560546875,0.031241392716765404,-0.013037609867751598,0.023492131382226944
1685683433771299600,13.468299560546875,0.03078760765492916,-0.01846558414399624,0.02494075521826744
1685683433791306000,13.488305908203126,0.044401176273822784,-0.027611108496785164,-0.005323254037648439
1685683433811299600,13.508299560546876,0.05112069472670555,-0.027628561481833458,-0.039793506264686584
1685683433831299600,13.528299560546875,0.05855579674243927,-0.03104940801858902,-0.04904375225305557
1685683433851299600,13.548299560546875,0.05511749908328056,-0.021676989272236824,-0.025324726477265358
1685683433871299600,13.568299560546874,0.06731735169887543,-0.019303342327475548,0.006387905217707157
1685683433891299600,13.588299560546876,0.06534512341022491,-0.023928463459014893,0.013805554248392582
1685683433911299600,13.608299560546875,0.030264008790254593,-0.008203047327697277,0.014154620468616486
1685683433931299600,13.628299560546875,-0.004468042869120836,0.00808087456971407,0.0270700566470623
1685683433951299600,13.648299560546874,-0.013543754816055298,0.015533430501818657,0.03958406671881676
1685683433971299600,13.668299560546876,0.004869468510150909,0.0011693706037476659,0.019338248297572136
1685683433991302700,13.688302734375,0.009093165397644043,-0.0037000980228185654,-0.027349309995770454
1685683434011299600,13.708299560546875,-0.004607669077813625,-0.0011693706037476659,-0.057246800512075424
1685683434031299600,13.728299560546875,-0.039933133870363235,0.020228365436196327,-0.053040556609630585
1685683434051299600,13.748299560546876,-0.04216715320944786,0.014695672318339348,-0.04337143152952194
1685683434071301000,13.768301025390626,-0.03249803185462952,0.024329889565706253,-0.010716321878135204
1685683434091299600,13.788299560546875,-0.012304571457207203,0.010489428415894508,0.014398965984582901
1685683434111301000,13.808301025390625,-0.009948376566171646,0.013753194361925125,0.015533430501818657
1685683434131299600,13.828299560546874,-0.025569073855876923,0.016109388321638107,0.02272418700158596
1685683434151301000,13.848301025390626,-0.05209807679057121,0.03759439289569855,0.03056071512401104
1685683434171301000,13.868301025390625,-0.05120795965194702,0.029112091287970543,0.02869321219623089
1685683434191307500,13.8883076171875,-0.06129596382379532,0.04818854108452797,0.04508185386657715
1685683434211299600,13.908299560546874,-0.04787437990307808,0.02909463830292225,0.022619467228651047
1685683434231299600,13.928299560546876,-0.03827507048845291,0.02830924093723297,0.01616174913942814
1685683434251299600,13.948299560546875,-0.047595128417015076,0.037088245153427124,0.025900686159729958
1685683434271299600,13.968299560546875,-0.030770154669880867,0.02897246554493904,0.018500490114092827
1685683434291299600,13.988299560546874,-0.016493361443281174,0.02090904489159584,-0.012636183761060238
1685683434311299600,14.008299560546876,0.006562437862157822,0.009669124148786068,-0.035499997437000275
1685683434331299600,14.028299560546875,0.015515976585447788,0.0205948855727911,-0.003508111694827676
1685683434351299600,14.048299560546875,0.03127630054950714,0.011990412138402462,0.026686083525419235
1685683434371299600,14.068299560546874,0.0403171069920063,0.013910274021327496,0.05572836101055145
1685683434391304200,14.08830419921875,0.01607448235154152,0.01993165910243988,0.05859070271253586
1685683434411299600,14.108299560546875,0.006981316953897476,0.01661553420126438,0.0036826448049396276
1685683434431299600,14.128299560546875,0.012967796064913273,0.0032114058267325163,-0.0411897711455822
1685683434451299600,14.148299560546874,0.01797689124941826,0.00663225119933486,-0.0734434574842453
1685683434471299600,14.168299560546876,0.05050982907414436,-0.007417649496346712,-0.058398716151714325
1685683434491309000,14.18830908203125,0.01310742273926735,0.01673770695924759,0.036163222044706345
1685683434511299600,14.208299560546875,-0.017208946868777275,0.016091935336589813,0.0786270797252655
1685683434531299600,14.228299560546875,-0.021502455696463585,0.0091455252841115,0.048956483602523804
1685683434551307500,14.2483076171875,-0.0256388857960701,0.002827433403581381,0.01944296807050705
1685683434571299600,14.268299560546875,-0.06267477571964264,0.023666664958000183,0.019111355766654015
1685683434591299600,14.288299560546875,-0.060789816081523895,0.030264008790254593,0.04845033958554268
1685683434611301000,14.308301025390625,-0.052028264850378036,0.027087509632110596,0.040683623403310776
1685683434631299600,14.328299560546874,-0.05480333790183067,0.018238689750432968,0.05625196173787117
1685683434651299600,14.348299560546875,-0.09054768085479736,0.04878195375204086,0.05913175642490387
1685683434671299600,14.368299560546875,-0.02258456125855446,-0.004642575979232788,-0.03389429301023483
1685683434691299600,14.388299560546875,-0.00678933085873723,-0.0009250245057046413,-0.03392919898033142
1685683434711299600,14.408299560546874,-0.01953023485839367,-0.0006108652451075613,-0.024993114173412323
1685683434731299600,14.428299560546876,-0.029653143137693405,0.015742870047688484,-0.013788101263344288
1685683434751299600,14.448299560546875,-0.05167919769883156,0.02338741160929203,0.012130037881433964
1685683434771299600,14.468299560546875,-0.07358308136463165,0.032183870673179626,0.05239478498697281
1685683434791299600,14.488299560546874,-0.08258897811174393,0.04026474431157112,0.05492551252245903
1685683434811299600,14.508299560546876,-0.06161012127995491,0.017610372975468636,0.054628804326057434
1685683434831299600,14.528299560546875,-0.0740194097161293,0.031433381140232086,0.061365775763988495
1685683434851299600,14.548299560546875,-0.03605850040912628,0.006230825558304787,0.023928463459014893
1685683434871299600,14.568299560546874,-0.023771384730935097,0.004293509759008884,-0.0018325956771150231
1685683434891299600,14.588299560546876,0.0371580608189106,-0.023858651518821716,-0.05988224595785141
1685683434911299600,14.608299560546875,0.0734609067440033,-0.028326693922281265,-0.08983209729194641
1685683434931299600,14.628299560546875,0.08663814514875412,-0.03274237737059593,-0.09496336430311203
1685683434951299600,14.648299560546874,0.06462953984737396,-0.01235693134367466,-0.05595525726675987
1685683434971299600,14.668299560546876,-0.021101031452417374,0.018901916220784187,0.030229102820158005
1685683434991299600,14.688299560546875,-0.09613273292779922,0.033510319888591766,0.08676031976938248
1685683435011299600,14.708299560546875,-0.10163052380084991,0.03207915276288986,0.0768992081284523
1685683435031299600,14.728299560546875,-0.06990043818950653,0.01014036312699318,0.036791540682315826
1685683435051299600,14.748299560546876,-0.031730085611343384,0.00045378561480902135,-0.0047996556386351585
1685683435071299600,14.768299560546875,-0.011239920742809772,-0.017435839399695396,-0.05408775433897972
1685683435091299600,14.788299560546875,-0.032445669174194336,-0.0030194194987416267,-0.0748746246099472
1685683435111299600,14.808299560546875,-0.06359979510307312,0.00331612559966743,-0.055867988616228104
1685683435131299600,14.828299560546874,-0.12053243815898895,0.030595621094107628,-0.01603957638144493
1685683435151299600,14.848299560546875,-0.16287413239479065,0.02946115843951702,-0.0026354470755904913
1685683435171299600,14.868299560546875,-0.19031070172786713,0.04066617041826248,0.006684611085802317
1685683435191299600,14.888299560546875,-0.21359339356422424,0.04248131439089775,0.03431317210197449
1685683435211299600,14.908299560546874,-0.21711896359920502,0.04616395756602287,0.06000442057847977
1685683435231301000,14.928301025390626,-0.18418459594249725,0.024609142914414406,0.043912485241889954
1685683435251301000,14.948301025390625,-0.1567131131887436,0.0119555052369833,0.012810716405510902
1685683435271299600,14.968299560546875,-0.15648621320724487,0.013875367119908333,0.021013764664530754
1685683435291299600,14.988299560546874,-0.1788613349199295,0.03214896470308304,0.05511749908328056
1685683435311299600,15.008299560546876,-0.1794023960828781,0.043476153165102005,0.0691324919462204
1685683435331309000,15.02830908203125,-0.17470745742321014,0.03885103017091751,0.06586872786283493
1685683435351299600,15.048299560546875,-0.1736602634191513,0.043423790484666824,0.05810201168060303
1685683435371299600,15.068299560546874,-0.1610240787267685,0.05089380219578743,0.0483979806303978
1685683435391299600,15.088299560546876,-0.13267992436885834,0.0570199079811573,0.036302849650382996
1685683435411299600,15.108299560546875,-0.08859290927648544,0.03680899366736412,0.04052654653787613
1685683435431299600,15.128299560546875,-0.04769985005259514,0.019687313586473465,0.036023594439029694
1685683435451299600,15.148299560546874,-0.02090904489159584,0.00769690191373229,0.020961403846740723
1685683435471299600,15.168299560546876,-0.004607669077813625,-0.006911503616720438,-0.00205948855727911
1685683435491299600,15.188299560546875,0.006405358202755451,0.0003665191470645368,-0.053302355110645294
1685683435511299600,15.208299560546875,0.008464846760034561,0.00331612559966743,-0.10030407458543777
1685683435531302700,15.228302734375,-0.04672246426343918,0.03429571911692619,-0.033370696008205414
1685683435551299600,15.248299560546876,-0.07463027536869049,0.052778758108615875,0.0091455252841115
1685683435571299600,15.268299560546875,-0.06803293526172638,0.036739181727170944,-0.012095131911337376
1685683435591299600,15.288299560546875,-0.0688532367348671,0.037402406334877014,-0.05078908056020737
1685683435611299600,15.308299560546875,-0.034784410148859024,0.016947146505117416,-0.07412413507699966
1685683435631301000,15.328301025390624,-0.04787437990307808,0.03520328924059868,-0.05515240505337715
1685683435651299600,15.348299560546875,-0.054506633430719376,0.01909390278160572,-0.033510319888591766
1685683435671299600,15.368299560546875,-0.059952057898044586,0.015655603259801865,-0.05276130139827728
1685683435691299600,15.388299560546875,-0.04509930685162544,0.012810716405510902,-0.10740756243467331
1685683435711299600,15.408299560546874,-0.010088003240525723,-0.0032463124953210354,-0.11616911739110947
1685683435731299600,15.428299560546876,-0.08838347345590591,0.03420845419168472,-0.030770154669880867
1685683435751299600,15.448299560546875,-0.1886700987815857,0.06454227864742279,0.08175121992826462
1685683435771299600,15.468299560546875,-0.24528856575489044,0.08915141969919205,0.10676179081201553
1685683435791299600,15.488299560546874,-0.2097187638282776,0.06874851882457733,0.10072295367717743
1685683435811299600,15.508299560546876,-0.13458234071731567,0.07155849784612656,0.09658651798963547
1685683435831299600,15.528299560546875,-0.021415190771222115,0.039618972688913345,0.0535816065967083
1685683435851299600,15.548299560546875,0.06099925562739372,0.01958259381353855,0.0017627825727686286
1685683435871299600,15.568299560546874,0.09374163299798965,0.0009599310578778386,-0.014294246211647987
1685683435891299600,15.588299560546876,0.06051056459546089,0.012007865123450756,0.019879300147294998
1685683435911299600,15.608299560546875,0.013613567687571049,0.017086774110794067,0.04804891347885132
1685683435931299600,15.628299560546875,0.008726646192371845,0.01589994877576828,0.06504841893911362
1685683435951299600,15.648299560546874,0.008796459063887596,0.0165631752461195,0.08948303014039993
1685683435971299600,15.668299560546876,-0.010279988870024681,0.018325956538319588,0.09285151958465576
1685683435991299600,15.688299560546875,-0.035412728786468506,0.025045474991202354,0.08630653470754623
1685683436011299600,15.708299560546875,-0.06014404445886612,0.01310742273926735,0.07176794111728668
1685683436031299600,15.728299560546875,-0.03431317210197449,-0.0005410520825535059,0.06260495632886887
1685683436051299600,15.748299560546876,0.037000980228185654,-0.006702064536511898,0.06611306965351105
1685683436071299600,15.768299560546875,0.13360495865345,-0.030839968472719193,0.03438298776745796
1685683436091299600,15.788299560546875,0.18414968252182007,-0.0455181859433651,0.0031939526088535786
1685683436111299600,15.808299560546875,0.1825963407754898,-0.039531707763671875,-0.010890854522585869
1685683436131299600,15.828299560546874,0.1567305624485016,-0.03544763848185539,-0.002809980185702443
1685683436151299600,15.848299560546875,0.1016654297709465,-0.016772614791989326,0.02658136375248432
1685683436171299600,15.868299560546875,0.0740194097161293,-0.0075747291557490826,0.06085963174700737
1685683436191299600,15.888299560546875,0.07782422751188278,-0.003001966280862689,0.06478662043809891
1685683436211299600,15.908299560546874,0.08251916617155075,-0.009180432185530663,0.051801372319459915
1685683436231299600,15.928299560546876,0.06370452046394348,-0.020629791542887688,0.04392993822693825
1685683436251301000,15.948301025390625,0.0437728576362133,-0.020891591906547546,0.03131120651960373
1685683436271299600,15.968299560546875,0.02076941728591919,-0.03391174599528313,0.017296213656663895
1685683436291299600,15.988299560546874,-0.012130037881433964,-0.030054569244384766,0.013055062852799892
1685683436311299600,16.008299560546874,-0.03750712424516678,-0.03199188411235809,0.00954695139080286
1685683436331299600,16.028299560546873,-0.04141666367650032,-0.03295181691646576,0.0008203047327697277
1685683436351299600,16.048299560546877,-0.02946115843951702,-0.03234095126390457,-0.003455751808360219
1685683436371299600,16.068299560546876,0.005986479111015797,-0.03986331820487976,-0.02497566118836403
1685683436391299600,16.088299560546876,0.04317944496870041,-0.05469861999154091,-0.01748819835484028
1685683436411299600,16.108299560546875,0.04475024342536926,-0.04668755829334259,0.004939281847327948
1685683436431299600,16.128299560546875,0.026476643979549408,-0.037891097366809845,0.028187068179249763
1685683436451299600,16.148299560546874,-0.011903145350515842,-0.02874557301402092,0.04885176569223404
1685683436471299600,16.168299560546874,-0.0826762467622757,-0.01748819835484028,0.06981316953897476
1685683436491299600,16.188299560546874,-0.09731955826282501,0.00017453292093705386,0.03857177495956421
1685683436511299600,16.208299560546877,-0.020228365436196327,-0.017121680080890656,-0.018238689750432968
1685683436531299600,16.228299560546876,0.00830776710063219,-0.005078908056020737,-0.04583234712481499
1685683436551299600,16.248299560546876,0.042010076344013214,-0.022619467228651047,-0.06073745712637901
1685683436571299600,16.268299560546875,0.06302383542060852,-0.01909390278160572,-0.026302112266421318
1685683436591299600,16.288299560546875,0.047280970960855484,-0.013718287460505962,0.01851794309914112
1685683436611301000,16.308301025390627,0.028780478984117508,0.004485496319830418,0.04021238535642624
1685683436631299600,16.328299560546874,0.009669124148786068,0.00024434609804302454,0.041399210691452026
1685683436651299600,16.348299560546874,-0.003455751808360219,0.011588986031711102,0.04686209186911583
1685683436671301000,16.368301025390625,-0.016510814428329468,0.003857177682220936,0.06693337857723236
1685683436691301000,16.388301025390625,-0.0207345113158226,-0.004258603323251009,0.03862413763999939
1685683436711299600,16.408299560546876,0.0051312679424881935,-0.010384708642959595,-0.00029670598451048136
1685683436731299600,16.428299560546876,0.03618067502975464,-0.01797689124941826,-0.027349309995770454
1685683436751299600,16.448299560546875,0.03890338912606239,-0.014765485189855099,-0.030752701684832573
1685683436771299600,16.468299560546875,-0.004974188283085823,0.0037000980228185654,-0.0022689281031489372
1685683436791299600,16.488299560546874,-0.05637413635849953,0.018308503553271294,0.03272492438554764
1685683436811299600,16.508299560546874,-0.08206538110971451,0.037768926471471786,0.0622209869325161
1685683436831299600,16.528299560546873,-0.07454301416873932,0.021275563165545464,0.06668902933597565
1685683436851299600,16.548299560546877,-0.05340707674622536,0.016999507322907448,0.03851941600441933
1685683436871299600,16.568299560546876,-0.03223622962832451,0.003577925032004714,-0.0066147977486252785
1685683436891299600,16.588299560546876,-0.02125811018049717,-0.0019547687843441963,-0.04846779257059097
1685683436911299600,16.608299560546875,-0.032218776643276215,-0.0003316125657875091,-0.0590444877743721
1685683436931299600,16.628299560546875,-0.044889867305755615,0.00563741335645318,-0.027646014466881752
1685683436951299600,16.648299560546874,-0.06763150542974472,0.021362829953432083,0.0426209419965744
1685683436971299600,16.668299560546874,-0.08164650201797485,0.02263692021369934,0.08857546001672745
1685683436991299600,16.688299560546874,-0.08098327368497849,0.02200860157608986,0.10075785964727402
1685683437011299600,16.708299560546877,-0.05984733998775482,0.007051130291074514,0.0645073652267456
1685683437031301000,16.728301025390625,-0.03246312215924263,-0.005951572675257921,-0.00017453292093705386
1685683437051301000,16.748301025390624,-0.008569566532969475,-0.014381512999534607,-0.046931903809309006
1685683437071301000,16.768301025390624,-0.0034732052590698004,-0.019896753132343292,-0.03609341010451317
1685683437091299600,16.788299560546875,-0.005201081279665232,-0.01104793418198824,0.00125663704238832
1685683437111299600,16.808299560546875,0.006544984877109528,-0.006824237294495106,0.012897983193397522
1685683437131299600,16.828299560546874,0.01377064734697342,-0.022776545956730843,0.011344640515744686
1685683437151299600,16.848299560546874,0.0038920841179788113,-0.0103672556579113,0.005759586580097675
1685683437171301000,16.868301025390625,0.005777040030807257,-0.017994344234466553,-0.011903145350515842
1685683437191301000,16.888301025390625,-0.009686577133834362,-0.01005309633910656,-0.006684611085802317
1685683437211299600,16.908299560546876,-0.02967059798538685,-0.00753982225432992,-0.00024434609804302454
1685683437231299600,16.928299560546876,-0.03099704720079899,-0.0073303827084600925,-0.002687806962057948
1685683437251301000,16.948301025390624,-0.01127482671290636,-0.013683381490409374,-0.01005309633910656
1685683437271299600,16.968299560546875,0.006003932561725378,-0.028239427134394646,-0.017208946868777275
1685683437291301000,16.988301025390626,0.019146261736750603,-0.024347342550754547,-0.0024085543118417263
1685683437311299600,17.008299560546874,0.03246312215924263,-0.02905973233282566,-0.003176499158143997
1685683437331299600,17.028299560546873,0.016423547640442848,-0.021101031452417374,-0.0075747291557490826
1685683437351299600,17.048299560546877,-0.04960225895047188,0.0019024088978767395,0.010314895771443844
1685683437371299600,17.068299560546876,-0.10719811916351318,0.017662731930613518,0.016144296154379845
1685683437391299600,17.088299560546876,-0.13098695874214172,0.02099631167948246,0.013980086892843246
1685683437411299600,17.108299560546875,-0.1373923122882843,0.023893557488918304,0.024260075762867928
1685683437431299600,17.128299560546875,-0.11747810989618301,0.01589994877576828,0.02422516979277134
1685683437451299600,17.148299560546874,-0.07597418129444122,0.006894050631672144,0.028047440573573112
1685683437471299600,17.168299560546874,-0.051661744713783264,-0.0036128314677625895,0.04571017250418663
1685683437491299600,17.188299560546874,-0.04368559271097183,-0.008918632753193378,0.09566149860620499
1685683437511299600,17.208299560546877,-0.035761795938014984,-0.012723450548946857,0.10958922654390335
1685683437531299600,17.228299560546876,-0.04445353522896767,-0.0131772356107831,0.10260790586471558
1685683437551299600,17.248299560546876,-0.06141813471913338,-0.002286381321027875,0.10046114772558212
1685683437571299600,17.268299560546875,-0.05461135134100914,0.0024085543118417263,0.0846659243106842
1685683437591299600,17.288299560546875,-0.04387757554650307,0.010524335317313671,0.07520623505115509
1685683437611299600,17.308299560546875,-0.03747221827507019,0.012688543647527695,0.05824163556098938
1685683437631299600,17.328299560546874,-0.03995058685541153,0.005061454605311155,0.055920347571372986
1685683437651299600,17.348299560546874,-0.029356438666582108,-0.000052359879191499203,0.01944296807050705
1685683437671299600,17.368299560546873,-0.0035953782498836517,-0.025708699598908424,-0.018325956538319588
1685683437691299600,17.388299560546876,0.00010471975838299841,-0.01129228062927723,-0.03166027367115021
1685683437711299600,17.408299560546876,-0.007679448463022709,-0.0003316125657875091,-0.05457644537091255
1685683437731299600,17.428299560546876,-0.030316369608044624,0.009913469664752483,-0.011239920742809772
1685683437751299600,17.448299560546875,-0.08340928703546524,0.03609341010451317,0.05637413635849953
1685683437771299600,17.468299560546875,-0.10758209228515625,0.03942698612809181,0.07859217375516891
1685683437791299600,17.488299560546874,-0.10643018037080765,0.029199358075857162,0.05619960278272629
1685683437811299600,17.508299560546874,-0.06658431142568588,0.008883725851774216,0.021188296377658844
1685683437831299600,17.528299560546873,-0.041695915162563324,-0.002949606394395232,-0.01785471849143505
1685683437851299600,17.548299560546877,-0.028553586453199387,-0.0062831854447722435,-0.031695179641246796
1685683437871299600,17.568299560546876,-0.0131772356107831,-0.009128072299063206,-0.019565140828490257
1685683437891299600,17.588299560546876,0.022532200440764427,-0.012950343079864979,-0.0038920841179788113
1685683437911299600,17.608299560546875,0.04244640842080116,-0.014137166552245617,0.029443703591823578
1685683437931299600,17.628299560546875,0.033824481070041656,-0.012391837313771248,0.05169665068387985
1685683437951299600,17.648299560546874,-0.025324726477265358,-0.0015707963611930609,0.07087782025337219
1685683437971299600,17.668299560546874,-0.09206611663103104,0.020891591906547546,0.05187118425965309
1685683437991299600,17.688299560546874,-0.09480628371238708,-0.0009773843921720982,-0.014748032204806805
1685683438011299600,17.708299560546877,-0.07175048440694809,-0.010175269097089767,-0.038554321974515915
1685683438031299600,17.728299560546876,-0.05464625731110573,-0.010786134749650955,-0.014206980355083942
1685683438051299600,17.748299560546876,-0.023579398170113564,-0.008796459063887596,0.015742870047688484
1685683438071299600,17.768299560546875,0.009564404375851154,-0.025237461552023888,0.02488839440047741
1685683438091299600,17.788299560546875,-0.002722713630646467,-0.016179202124476433,0.046530477702617645
1685683438111299600,17.808299560546875,-0.03267256170511246,-0.006265731994062662,0.06663667410612106
1685683438131299600,17.828299560546874,-0.060528017580509186,-0.004153883550316095,0.0581892766058445
1685683438151299600,17.848299560546874,-0.07021459192037582,-0.0012042771559208632,0.04495968297123909
1685683438171299600,17.868299560546873,-0.08634144067764282,0.011082841083407402,0.051225412636995316
1685683438191299600,17.888299560546876,-0.06983062624931335,0.009529497474431992,0.07386233657598495
1685683438211299600,17.908299560546876,-0.049410272389650345,0.0009599310578778386,0.06473426520824432
1685683438231299600,17.928299560546876,-0.002548180753365159,-0.0253421813249588,0.0527089424431324
1685683438251299600,17.948299560546875,-0.003490658476948738,0,0.07035422325134277
1685683438271299600,17.968299560546875,0.009878563694655895,-0.014154620468616486,0.03782128542661667
1685683438291299600,17.988299560546874,0.011903145350515842,-0.014224433340132236,-0.0009250245057046413
1685683438311299600,18.008299560546874,0.02445206232368946,-0.023719023913145065,-0.005375613924115896
1685683438331299600,18.028299560546873,0.018064158037304878,-0.015201817266643047,0.013456488028168678
1685683438351299600,18.048299560546877,-0.013142329640686512,0.003036872949451208,0.0662352442741394
1685683438371299600,18.068299560546876,-0.03818780556321144,0.004485496319830418,0.10990338027477264
1685683438391299600,18.088299560546876,-0.03707079216837883,-0.005864306353032589,0.11625637859106064
1685683438411299600,18.108299560546875,-0.023020893335342407,-0.018483037129044533,0.0547335259616375
1685683438431299600,18.128299560546875,0.011309733614325523,-0.037367500364780426,-0.005654866807162762
1685683438451299600,18.148299560546874,0.02830924093723297,-0.040334559977054596,-0.02134537696838379
1685683438471299600,18.168299560546874,0.039304815232753754,-0.0437728576362133,-0.019233528524637222
1685683438491299600,18.188299560546874,0.026145031675696373,-0.028902651742100716,0.0046774824149906635
1685683438511299600,18.208299560546877,0.017558012157678604,-0.03387684002518654,0.010873401537537575
1685683438531299600,18.228299560546876,-0.003804817795753479,-0.046268679201602936,-0.020123645663261414
1685683438551299600,18.248299560546876,-0.04244640842080116,-0.04131194204092026,-0.04101523756980896
1685683438571299600,18.268299560546875,-0.07630579173564911,-0.025673793628811836,-0.04035201296210289
1685683438591299600,18.288299560546875,-0.09192649275064468,-0.02108357660472393,-0.048921577632427216
1685683438611301000,18.308301025390627,-0.1057145893573761,-0.013840461149811745,-0.0383099764585495
1685683438631299600,18.328299560546874,-0.09930923581123352,-0.011013027280569077,-0.009930923581123352
1685683438651299600,18.348299560546874,-0.09646435081958771,0.003403391921892762,0.027436574921011925
1685683438671299600,18.368299560546873,-0.06302383542060852,-0.008098327554762363,0.028117254376411438
1685683438691299600,18.388299560546876,-0.03447025269269943,-0.006702064536511898,0.002024581888690591
1685683438711299600,18.408299560546876,-0.0573166124522686,0.003996803890913725,0.005270894151180983
1685683438731299600,18.428299560546876,-0.10143853724002838,0.018500490114092827,0.02972295694053173
1685683438751299600,18.448299560546875,-0.1250353902578354,0.02174680307507515,0.05181882530450821
1685683438771299600,18.468299560546875,-0.13138838112354279,0.024329889565706253,0.06674139201641083
1685683438791299600,18.488299560546874,-0.10880382359027863,0.02108357660472393,0.046303585171699524
1685683438811299600,18.508299560546874,-0.03249803185462952,0.001343903481028974,0.00296705961227417
1685683438831299600,18.528299560546873,0.021415190771222115,-0.010855947621166706,-0.04614650458097458
1685683438851299600,18.548299560546877,0.05063199996948242,-0.015847589820623398,-0.04824090003967285
1685683438871299600,18.568299560546876,0.04038691893219948,-0.011920598335564137,-0.0286583062261343
1685683438891359000,18.58835888671875,0.002722713630646467,0.0004886921960860491,-0.0013788101496174932
1685683438911299600,18.608299560546875,-0.04773475602269173,-0.0038920841179788113,0.008325220085680485
1685683438931299600,18.628299560546875,-0.06894050538539886,0.007435102481395006,-0.01567305624485016
1685683438951299600,18.648299560546874,-0.07038912922143936,0.0025656339712440968,-0.01970476657152176
1685683438971299600,18.668299560546874,-0.041922807693481445,-0.005602506920695305,-0.024068091064691544
1685683438991299600,18.688299560546874,-0.0036477381363511086,-0.011379546485841274,-0.015358896926045418
1685683439011299600,18.708299560546877,0.01160643994808197,-0.008028514683246613,-0.0033859387040138245
1685683439031299600,18.728299560546876,0.020210912451148033,-0.011763518676161766,0.0036826448049396276
1685683439051299600,18.748299560546876,-0.00006981316983001307,-0.0011868239380419254,0.02670353837311268
1685683439071299600,18.768299560546875,-0.004171337001025677,-0.00006981316983001307,0.04499458894133568
1685683439091299600,18.788299560546875,-0.015376350842416286,0.009128072299063206,0.05625196173787117
1685683439111299600,18.808299560546875,-0.029478611424565315,0.006562437862157822,0.04080579802393913
1685683439131299600,18.828299560546874,-0.036250486969947815,0.0009250245057046413,0.010035643354058266
1685683439151299600,18.848299560546874,-0.05487314984202385,0.002809980185702443,-0.00188495556358248
1685683439171299600,18.868299560546873,-0.06930702179670334,0.0028797932900488377,-0.015742870047688484
1685683439191299600,18.888299560546876,-0.07134906202554703,-0.0031590459402650595,-0.024294983595609665
1685683439211299600,18.908299560546876,-0.07752752304077148,-0.009512044489383698,-0.016772614791989326
1685683439231299600,18.928299560546876,-0.08827875554561615,-0.004590216092765331,-0.004328416660428047
1685683439251299600,18.948299560546875,-0.0953473374247551,0.0024434609804302454,0.006719517521560192
1685683439271299600,18.968299560546875,-0.08644615858793259,-0.001745329238474369,0.003543018363416195
1685683439291299600,18.988299560546874,-0.07510151714086533,-0.000052359879191499203,-0.00457276264205575
1685683439311299600,19.008299560546874,-0.06464699655771255,-0.007976154796779156,-0.0017104226863011718
1685683439331299600,19.028299560546873,-0.06698573380708694,-0.005462880712002516,-0.007941247895359993
1685683439351299600,19.048299560546877,-0.038065630942583084,-0.022357666864991188,-0.022514747455716133
1685683439371299600,19.068299560546876,-0.0008552113431505859,-0.03358013555407524,-0.06691592186689377
1685683439391299600,19.088299560546876,0.029338983818888664,-0.044052109122276306,-0.09902998059988022
1685683439411299600,19.108299560546875,0.02741912193596363,-0.037367500364780426,-0.07442083954811096
1685683439431299600,19.128299560546875,-0.020001472905278206,-0.012601276859641075,-0.0026354470755904913
1685683439451299600,19.148299560546874,-0.0518537312746048,-0.00839503388851881,0.03810053691267967
1685683439471299600,19.168299560546874,-0.039653878659009933,-0.017174039036035538,0.028902651742100716
1685683439491299600,19.188299560546874,-0.010070549324154854,-0.017837265506386757,0.019914206117391586
1685683439511299600,19.208299560546877,-0.013142329640686512,-0.012130037881433964,0.042760565876960754
1685683439531299600,19.228299560546876,-0.0213104709982872,-0.0046774824149906635,0.01251401100307703
1685683439551299600,19.248299560546876,-0.003525565145537257,-0.015376350842416286,-0.051661744713783264
1685683439571301000,19.268301025390624,-0.015865042805671692,-0.0032114058267325163,-0.04944517835974693
1685683439591299600,19.288299560546875,-0.048607420176267624,0.006387905217707157,-0.008866272866725922
1685683439611299600,19.308299560546875,-0.061540309339761734,0.010192723013460636,0.01251401100307703
1685683439631299600,19.328299560546874,-0.04127703607082367,0.006387905217707157,0.0017976891249418259
1685683439651299600,19.348299560546874,-0.032271139323711395,0.00518362782895565,0.0006632251315750182
1685683439671299600,19.368299560546873,-0.05434955283999443,0.010786134749650955,0.014276793226599693
1685683439691299600,19.388299560546876,-0.07473500072956085,0.010070549324154854,0.0039618974551558495
1685683439711299600,19.408299560546876,-0.0844041258096695,0.009791296906769276,-0.011554080061614513
1685683439731299600,19.428299560546876,-0.08522442728281021,0.01705186627805233,-0.003036872949451208
1685683439751299600,19.448299560546875,-0.06700319051742554,0.0038746309000998735,-0.015777776017785072
1685683439771299600,19.468299560546875,-0.03644247353076935,-0.0023911010939627886,-0.032393310219049454
1685683439791299600,19.488299560546874,-0.030002210289239883,-0.003804817795753479,-0.04043927788734436
1685683439811299600,19.508299560546874,-0.06756169348955154,0.004241149872541428,-0.026947883889079094
1685683439831299600,19.528299560546873,-0.08759807795286179,0.014852751977741718,-0.0010821041651070118
1685683439851299600,19.548299560546877,-0.06958627700805664,0.013631021603941917,0.036390114575624466
1685683439871299600,19.568299560546876,-0.04310963302850723,0.0009599310578778386,0.05710717290639877
1685683439891299600,19.588299560546876,-0.02347467839717865,-0.008848818950355053,0.01785471849143505
1685683439911299600,19.608299560546875,-0.013404129073023796,-0.01696459949016571,-0.033999014645814896
1685683439931299600,19.628299560546875,-0.03562216833233833,-0.012391837313771248,-0.047909289598464966
1685683439951299600,19.648299560546874,-0.059637900441884995,-0.00930260494351387,-0.04536110535264015
1685683439971299600,19.668299560546874,-0.0576133169233799,-0.010506882332265377,-0.03234095126390457
1685683439991299600,19.688299560546874,-0.029426250606775284,-0.016406094655394554,-0.02644173800945282
1685683440011301000,19.708301025390625,-0.017261305823922157,-0.019547687843441963,-0.037454765290021896
1685683440031299600,19.728299560546876,-0.04988151043653488,0.003926991019397974,-0.006492624990642071
1685683440051299600,19.748299560546876,-0.0774926170706749,0.017558012157678604,0.02480112947523594
1685683440071299600,19.768299560546875,-0.05670574679970741,0.012147491797804832,0.018936822190880775
1685683440091299600,19.788299560546875,-0.021799162030220032,-0.0017627825727686286,0.002460914198309183
1685683440111299600,19.808299560546875,0.0076445420272648335,-0.015254177153110504,-0.031381018459796906
1685683440131299600,19.828299560546874,0.019774580374360085,-0.02387610450387001,-0.0818210318684578
1685683440151299600,19.848299560546874,0.01802925020456314,-0.03246312215924263,-0.1068490594625473
1685683440171299600,19.868299560546873,0.004607669077813625,-0.031293753534555435,-0.10861183702945709
1685683440191299600,19.888299560546876,-0.009337511844933033,-0.01595230959355831,-0.03441789373755455
1685683440211299600,19.908299560546876,-0.028326693922281265,0.0008726646192371845,0.04907865822315216
1685683440231299600,19.928299560546876,-0.04225442185997963,0.007888888008892536,0.086969755589962
1685683440251299600,19.948299560546875,-0.02569124661386013,-0.008045967668294907,0.04668755829334259
1685683440271299600,19.968299560546875,0.00020943951676599681,-0.020664697512984276,-0.005323254037648439
1685683440291299600,19.988299560546874,0.020228365436196327,-0.02848377265036106,-0.02701769582927227
1685683440311299600,20.008299560546874,0.019809486344456673,-0.02848377265036106,-0.002809980185702443
1685683440331299600,20.028299560546873,0.0019373154500499368,-0.014590952545404434,0.06633996218442917
1685683440351299600,20.048299560546877,-0.007923794910311699,-0.02192133478820324,0.06328564137220383
1685683440371299600,20.068299560546876,-0.03174753859639168,-0.03202679008245468,0.017505653202533722
1685683440391299600,20.088299560546876,-0.05585053563117981,-0.013631021603941917,0.01731366664171219
1685683440411299600,20.108299560546875,-0.060126591473817825,-0.013281955383718014,0.026633724570274353
1685683440431299600,20.128299560546875,-0.048921577632427216,-0.020612338557839394,0.0429176464676857
1685683440451299600,20.148299560546874,-0.04902629926800728,-0.00678933085873723,0.05316272750496864
1685683440471299600,20.168299560546874,-0.05037020146846771,-0.0013962633674964309,0.04314453899860382
1685683440491299600,20.188299560546874,-0.05420992523431778,-0.011501720175147057,0.008360126987099648
1685683440511299600,20.208299560546877,-0.020001472905278206,-0.023404864594340324,-0.008360126987099648
1685683440531299600,20.228299560546876,0.03153809905052185,-0.03307398781180382,-0.03593632951378822
1685683440551299600,20.248299560546876,0.06874851882457733,-0.04213224723935127,-0.022043507546186447
1685683440571299600,20.268299560546875,0.040194932371377945,-0.0207345113158226,0.02090904489159584
1685683440591299600,20.288299560546875,-0.00708603672683239,-0.009477137587964535,0.04389503225684166
1685683440611301000,20.308301025390627,-0.05466371029615402,0.0036477381363511086,0.05258677154779434
1685683440631299600,20.328299560546874,-0.07194247096776962,0.012304571457207203,0.061854466795921326
1685683440651299600,20.348299560546874,-0.032044246792793274,-0.0008901178953237832,0.03237585723400116
1685683440671301000,20.368301025390625,0.02830924093723297,-0.02843141369521618,-0.02768092229962349
1685683440691299600,20.388299560546876,0.06263986974954605,-0.04831071197986603,-0.0501258559525013
1685683440711299600,20.408299560546876,0.013316862285137177,-0.017086774110794067,-0.035726889967918396
1685683440731299600,20.428299560546876,-0.030368728563189507,-0.018325956538319588,-0.0045378562062978745
1685683440751299600,20.448299560546875,-0.04904375225305557,-0.0009948377264663577,0.04358087107539177
1685683440771299600,20.468299560546875,-0.03199188411235809,-0.0017802357906475663,0.06089453771710396
1685683440791299600,20.488299560546874,-0.043214350938797,0.013840461149811745,0.07600908726453781
1685683440811299600,20.508299560546874,-0.05602506920695305,0.0207345113158226,0.06051056459546089
1685683440831299600,20.528299560546873,-0.06131341680884361,0.016109388321638107,0.024609142914414406
1685683440851299600,20.548299560546877,-0.04202752932906151,-0.0067369709722697735,-0.05160938575863838
1685683440871299600,20.568299560546876,-0.026720991358160973,-0.021327923983335495,-0.09197884798049927
1685683440891299600,20.588299560546876,-0.043022364377975464,-0.019058994948863983,-0.04663519561290741
1685683440911299600,20.608299560546875,-0.04726351425051689,-0.011554080061614513,0.009564404375851154
1685683440931299600,20.628299560546875,-0.05712462589144707,-0.010384708642959595,0.03127630054950714
1685683440951299600,20.648299560546874,-0.058660514652729034,-0.01080358773469925,0.012897983193397522
1685683440971299600,20.668299560546874,-0.046931903809309006,-0.004310963209718466,-0.004014257341623306
1685683440991299600,20.688299560546874,-0.05478588491678238,-0.008831365965306759,-0.02076941728591919
1685683441011299600,20.708299560546877,-0.06166248396039009,-0.010873401537537575,-0.023492131382226944
1685683441031299600,20.728299560546876,-0.023527037352323532,-0.00823795422911644,-0.024242622777819633
1685683441051299600,20.748299560546876,0.008168140426278114,-0.022846359759569168,-0.004747295752167702
1685683441071299600,20.768299560546875,0.0024434609804302454,-0.024294983595609665,0.007417649496346712
1685683441091299600,20.788299560546875,-0.00970403105020523,-0.02511528693139553,0.0025830871891230345
1685683441111299600,20.808299560546875,-0.01970476657152176,-0.011501720175147057,0.022427480667829514
1685683441131299600,20.828299560546874,-0.030578168109059334,-0.014224433340132236,0.04534365236759186
1685683441151299600,20.848299560546874,-0.04270820692181587,-0.010105456225574017,0.051714107394218445
1685683441171299600,20.868299560546873,-0.053267449140548706,-0.007365289609879255,0.04082325100898743
1685683441191299600,20.888299560546876,-0.06274458765983582,-0.00205948855727911,0.03525565192103386
1685683441211299600,20.908299560546876,-0.04625122621655464,-0.015795229002833366,0.04562290757894516
1685683441231299600,20.928299560546876,-0.04265584796667099,-0.00808087456971407,0.019425515085458755
1685683441251299600,20.948299560546875,-0.03839724510908127,-0.015795229002833366,0.006981316953897476
1685683441271299600,20.968299560546875,-0.056897733360528946,-0.015289084054529667,-0.020053833723068237
1685683441291299600,20.988299560546874,-0.08374089747667313,-0.014311700128018856,-0.023003440350294113
1685683441311299600,21.008299560546874,-0.11081095039844513,0.006195918656885624,-0.0131772356107831
1685683441331299600,21.028299560546873,-0.10231120139360428,-0.003036872949451208,-0.022794000804424286
1685683441351299600,21.048299560546877,-0.08283332735300064,0.007941247895359993,-0.005846852902323008
1685683441371301000,21.068301025390625,-0.040282197296619415,0,0.00411897711455822
1685683441391299600,21.088299560546876,-0.011798425577580929,0.0010646508308127522,-0.00024434609804302454
1685683441411299600,21.108299560546875,-0.0028623400721699,0.0041015236638486385,0.0028797932900488377
1685683441431299600,21.128299560546875,-0.012339477427303791,0.013596114702522755,0.027628561481833458
1685683441451299600,21.148299560546874,-0.02258456125855446,0.005462880712002516,0.011833332479000092
1685683441471299600,21.168299560546874,-0.03150319308042526,-0.015411256812512875,-0.008272860199213028
1685683441491299600,21.188299560546874,-0.06038839370012283,0.011344640515744686,0.022078415378928185
1685683441511299600,21.208299560546877,-0.08908160775899887,0.014887658879160881,0.07126179337501526
1685683441531299600,21.228299560546876,-0.07860963046550751,-0.0010646508308127522,0.05120795965194702
1685683441551299600,21.248299560546876,-0.03761184588074684,-0.013997540809214115,0.02295107953250408
1685683441571299600,21.268299560546875,0.002687806962057948,-0.031695179641246796,-0.0022165682166814804
1685683441591299600,21.288299560546875,0.018657568842172623,-0.024242622777819633,-0.026895523071289062
1685683441611299600,21.308299560546875,0.007853982038795948,-0.009424777701497078,-0.027750734239816666
1685683441631299600,21.328299560546874,-0.02396337129175663,0.012897983193397522,-0.01302015595138073
1685683441651299600,21.348299560546874,-0.06832963973283768,0.008918632753193378,0.003804817795753479
1685683441671299600,21.368299560546873,-0.13226105272769928,0.024033183231949806,-0.0046774824149906635
1685683441691301000,21.388301025390625,-0.13517574965953827,0.018622662872076035,-0.020490165799856186
1685683441711299600,21.408299560546876,-0.0754505842924118,0.023265238851308823,-0.010786134749650955
1685683441731299600,21.428299560546876,-0.039392080157995224,0.017680184915661812,-0.011972958222031593
1685683441751299600,21.448299560546875,-0.010698867961764336,-0.00006981316983001307,-0.03406882658600807
1685683441771299600,21.468299560546875,-0.013281955383718014,0.004852015525102615,-0.058224182575941086
1685683441791299600,21.488299560546874,-0.05611233413219452,0.004450589418411255,-0.08515461534261703
1685683441811299600,21.508299560546874,-0.12309807538986206,0.02445206232368946,-0.048171088099479675
1685683441831299600,21.528299560546873,-0.192422553896904,0.04574507847428322,0.01975712738931179
1685683441851299600,21.548299560546877,-0.20322613418102264,0.04009021446108818,0.039043016731739044
1685683441871299600,21.568299560546876,-0.1635722517967224,0.016894787549972534,-0.004014257341623306
1685683441891299600,21.588299560546876,-0.08539895713329315,-0.0049916417337954044,-0.04942772537469864
1685683441911299600,21.608299560546875,-0.027488935738801956,-0.018709929659962654,-0.07438593357801437
1685683441931299600,21.628299560546875,-0.016894787549972534,-0.009250245057046413,-0.06937684118747711
1685683441951299600,21.648299560546874,-0.04663519561290741,0.00143117003608495,-0.04255112633109093
1685683441971299600,21.668299560546874,-0.08197811245918274,0.01104793418198824,-0.02281145378947258
1685683441991299600,21.688299560546874,-0.10761699825525284,0.0190066359937191,-0.007749261800199747
1685683442011299600,21.708299560546877,-0.1336747705936432,0.048659779131412506,0.01682497374713421
1685683442031299600,21.728299560546876,-0.12892746925354004,0.037664204835891724,0.018814649432897568
1685683442051299600,21.748299560546876,-0.1137605607509613,0.041521381586790085,0.03295181691646576
1685683442071301000,21.768301025390624,-0.09546951204538345,0.035726889967918396,0.024033183231949806
1685683442091301000,21.788301025390624,-0.06298892945051193,0.008831365965306759,0.012932890094816685
1685683442111299600,21.808299560546875,-0.01647590845823288,0.004066617228090763,-0.010070549324154854
1685683442131301000,21.828301025390626,0.00296705961227417,0.0018325956771150231,-0.036425020545721054
1685683442151299600,21.848299560546874,-0.0023911010939627886,-0.006963863503187895,-0.08402015268802643
1685683442171299600,21.868299560546873,-0.03539527580142021,0.012653636746108532,-0.09632471948862076
1685683442191301000,21.888301025390625,-0.0841074138879776,0.03396410867571831,-0.05607742816209793
1685683442211299600,21.908299560546876,-0.13838715851306915,0.033737216144800186,-0.03925245627760887
1685683442231299600,21.928299560546876,-0.1419825404882431,-0.001029744278639555,-0.03754203021526337
1685683442251299600,21.948299560546875,-0.12718214094638824,-0.01061160210520029,-0.03986331820487976
1685683442271299600,21.968299560546875,-0.0878424197435379,-0.02413790300488472,-0.027960173785686493
1685683442291299600,21.988299560546874,-0.041294489055871964,-0.03556980937719345,-0.007295476272702217
1685683442311299600,22.008299560546874,0.002827433403581381,-0.05585053563117981,0.0006108652451075613
1685683442331299600,22.028299560546873,0.02502802200615406,-0.06524040549993515,-0.016441000625491142
1685683442351299600,22.048299560546877,0.009180432185530663,-0.05482079088687897,-0.02998475730419159
1685683442371301000,22.068301025390625,-0.010821041651070118,-0.03892084211111069,0.016231561079621315
1685683442391301000,22.088301025390624,-0.046006880700588226,-0.021764256060123444,0.07686430215835571
1685683442411299600,22.108299560546875,-0.05935864895582199,-0.005864306353032589,0.11294025182723999
1685683442431299600,22.128299560546875,-0.04853760451078415,-0.01572541706264019,0.10833258926868439
1685683442451299600,22.148299560546874,-0.015830136835575104,-0.039793506264686584,0.05181882530450821
1685683442471299600,22.168299560546874,0.016929693520069122,-0.03750712424516678,0.007225662935525179
1685683442491299600,22.188299560546874,0.04199262335896492,-0.032393310219049454,-0.020542524755001068
1685683442511299600,22.208299560546877,0.042900193482637405,-0.051487211138010025,-0.033999014645814896
1685683442531299600,22.228299560546876,0.006998770404607058,-0.03228859230875969,0.014538592658936977
1685683442551299600,22.248299560546876,-0.04914847016334534,0.019879300147294998,0.09049531817436218
1685683442571299600,22.268299560546875,-0.06895796209573746,0.01745329238474369,0.08412487059831619
1685683442591299600,22.288299560546875,-0.039618972688913345,-0.007888888008892536,0.027139870449900627
1685683442611301000,22.308301025390627,0.008761553093791008,-0.026389379054307938,-0.050422560423612595
1685683442631299600,22.328299560546874,0.04277801886200905,-0.13725268840789795,-0.036075957119464874
1685683442651299600,22.348299560546874,0.045204028487205505,-0.013247049413621426,-0.018797196447849274
1685683442671301000,22.368301025390625,0.003543018363416195,-0.011484266258776188,0.03141592815518379
1685683442691299600,22.388299560546876,-0.011135200969874859,-0.01740093342959881,0.024085544049739838
1685683442711299600,22.408299560546876,0.006806783843785524,-0.026825711131095886,0.019425515085458755
1685683442731299600,22.428299560546876,0.010559242218732834,-0.02799508161842823,0.019076447933912277
1685683442751299600,22.448299560546875,0.012217304669320583,-0.024242622777819633,0.039618972688913345
1685683442771299600,22.468299560546875,0.011676252819597721,-0.02658136375248432,0.07021459192037582
1685683442791299600,22.488299560546874,-0.024836035445332527,0.005340707488358021,0.09536478668451309
1685683442811299600,22.508299560546874,-0.073722705245018,0.007278022821992636,0.10573204606771469
1685683442831299600,22.528299560546873,-0.0786445364356041,-0.024696409702301025,0.03291691094636917
1685683442851299600,22.548299560546877,-0.030455995351076126,-0.03104940801858902,-0.04703662171959877
1685683442871299600,22.568299560546876,0.0076445420272648335,-0.02808234840631485,-0.09053023159503937
1685683442891299600,22.588299560546876,-0.01776745170354843,-0.0060388389974832535,-0.026982789859175682
1685683442911299600,22.608299560546875,-0.08313003182411194,0.02825688011944294,0.07024950534105301
1685683442931299600,22.628299560546875,-0.15327481925487518,0.05021312087774277,0.12493066489696503
1685683442951299600,22.648299560546874,-0.17526596784591675,0.054855696856975555,0.09124581515789032
1685683442971299600,22.668299560546874,-0.13461723923683167,0.029688050970435143,0.0033859387040138245
1685683442991299600,22.688299560546874,-0.056932639330625534,-0.0011868239380419254,-0.09098401665687561
1685683443011299600,22.708299560546877,-0.005794493015855551,-0.025534166023135185,-0.07616616785526276
1685683443031299600,22.728299560546876,-0.011571533046662807,-0.022689281031489372,-0.0328296422958374
1685683443051299600,22.748299560546876,-0.04476769641041756,-0.015184364281594753,0.020088739693164825
1685683443071299600,22.768299560546875,-0.10119418799877167,0.00013962633966002613,0.05403539165854454
1685683443091299600,22.788299560546875,-0.11053170263767242,-0.009948376566171646,0.026249751448631287
1685683443111299600,22.808299560546875,-0.08272860944271088,-0.01377064734697342,-0.024242622777819633
1685683443131299600,22.828299560546874,-0.025761060416698456,-0.034086279571056366,-0.06028367206454277
1685683443151299600,22.848299560546874,0.008098327554762363,-0.015830136835575104,-0.03303908184170723
1685683443171299600,22.868299560546873,0.03405137360095978,-0.013473941944539547,0.007888888008892536
1685683443191301000,22.888301025390625,0.01731366664171219,0.01736602559685707,0.03358013555407524
1685683443211299600,22.908299560546876,-0.007033676840364933,-0.0263544712215662,0.0437728576362133
1685683443231301000,22.928301025390624,-0.03324852138757706,-0.005550147034227848,0.0184306763112545
1685683443251301000,22.948301025390624,-0.057822756469249725,-0.007941247895359993,-0.01855284906923771
1685683443271301000,22.968301025390623,-0.06241297349333763,-0.0021642083302140236,-0.025656340643763542
1685683443291299600,22.988299560546874,-0.05026548355817795,0.022602014243602753,0.012409291230142117
1685683443311299600,23.008299560546874,-0.0279427208006382,0.05527457594871521,0.04862487316131592
1685683443331299600,23.028299560546873,-0.01993165910243988,0.017261305823922157,0.022706734016537666
1685683443351299600,23.048299560546877,-0.0303861815482378,0.024120450019836426,-0.03396410867571831
1685683443371299600,23.068299560546876,-0.02254965342581272,0.028955012559890747,-0.07127925008535385
1685683443391299600,23.088299560546876,-0.03471459820866585,0.02612757869064808,-0.08194320648908615
1685683443411299600,23.108299560546875,-0.07559020817279816,0.018535396084189415,-0.06806784123182297
1685683443431299600,23.128299560546875,-0.10721557587385178,0.03429571911692619,-0.024155355989933014
1685683443451299600,23.148299560546874,-0.13184216618537903,0.02954842336475849,0.0023561944253742695
1685683443471299600,23.168299560546874,-0.11634364724159241,0.026563910767436028,0.00724311638623476
1685683443491299600,23.188299560546874,-0.07887142896652222,0.0037873645778745413,-0.024033183231949806
1685683443511299600,23.208299560546877,-0.04092797264456749,-0.0003490658418741077,-0.0627794936299324
1685683443531299600,23.228299560546876,-0.02174680307507515,-0.005899212788790464,-0.08487536013126373
1685683443551299600,23.248299560546876,-0.02528982050716877,0.006492624990642071,-0.06541494280099869
1685683443571299600,23.268299560546875,-0.037000980228185654,0.004712388850748539,-0.025272367522120476
1685683443591299600,23.288299560546875,-0.0659734457731247,0.011536626145243645,0.015132004395127296
1685683443611301000,23.308301025390627,-0.08215264976024628,-0.006073745898902416,0.0200189258903265
1685683443631299600,23.328299560546874,-0.08705702424049377,-0.004084070213139057,0.005986479111015797
1685683443651299600,23.348299560546874,-0.08274605870246887,-0.014137166552245617,-0.024836035445332527
1685683443671299600,23.368299560546873,-0.0524296909570694,-0.021502455696463585,-0.032096605747938156
1685683443691299600,23.388299560546876,-0.03073524869978428,-0.012548916973173618,-0.01665044017136097
1685683443711299600,23.408299560546876,-0.026773350313305855,-0.01516691129654646,-0.005375613924115896
1685683443731299600,23.428299560546876,-0.02263692021369934,-0.0142593402415514,0.01029744278639555
1685683443751299600,23.448299560546875,-0.04787437990307808,0.001972222002223134,0.044628068804740906
1685683443771299600,23.468299560546875,-0.06698573380708694,0.011693705804646015,0.04982915148139
1685683443791299600,23.488299560546874,-0.08042477071285248,0.0026529005263000727,0.042498767375946045
1685683443811299600,23.508299560546874,-0.09833184629678726,0.017662731930613518,0.055867988616228104
1685683443831299600,23.528299560546873,-0.08904670178890228,0.014852751977741718,0.05544910952448845
1685683443851299600,23.548299560546877,-0.05548401549458504,0.005340707488358021,0.048258353024721146
1685683443871299600,23.568299560546876,0.005497787147760391,-0.0007504915702156723,0.019809486344456673
1685683443891299600,23.588299560546876,0.06672393530607224,-0.023945916444063187,-0.03555235639214516
1685683443911299600,23.608299560546875,0.07904595881700516,-0.010262535884976387,-0.04297000542283058
1685683443931299600,23.628299560546875,0.05745624005794525,-0.013386675156652927,-0.02010619267821312
1685683443951299600,23.648299560546874,-0.0003490658418741077,0.005951572675257921,0.022776545956730843
1685683443971299600,23.668299560546874,-0.07623597979545593,0.005550147034227848,0.056461401283741
1685683443991299600,23.688299560546874,-0.08356636762619019,-0.008011061698198318,0.06478662043809891
1685683444011299600,23.708299560546877,-0.03335324302315712,-0.026598818600177765,0.04516912251710892
1685683444031299600,23.728299560546876,0.010663961991667747,-0.04164355620741844,0.015044738538563251
1685683444051299600,23.748299560546876,0.0437728576362133,-0.06152285635471344,-0.004782202187925577
1685683444071299600,23.768299560546875,0.05014330893754959,-0.04310963302850723,0.03733259439468384
1685683444091299600,23.788299560546875,0.02382374368607998,-0.031119219958782196,0.08833111077547073
1685683444111299600,23.808299560546875,-0.010279988870024681,-0.026651177555322647,0.08349654823541641
1685683444131299600,23.828299560546874,-0.032934363931417465,-0.022218041121959686,0.05927138030529022
1685683444151299600,23.848299560546874,-0.05712462589144707,-0.002478367416188121,0.05815437063574791
1685683444171299600,23.868299560546873,-0.06909758597612381,-0.011344640515744686,0.030595621094107628
1685683444191299600,23.888299560546876,-0.06209881603717804,-0.0077667152509093285,0.019600046798586845
