time,seconds_elapsed,z,y,x
1685710156549594400,0.115594482421875,9.76903247833252,0.8633874654769897,-0.041860222816467285
1685710156569599200,0.13559912109375,9.944001197814941,0.9189712405204773,-0.02175850421190262
1685710156589594400,0.155594482421875,9.845857620239258,0.9348304271697998,-0.09584467858076096
1685710156609616400,0.175616455078125,9.683588027954102,0.960908055305481,-0.07309018820524216
1685710156629594400,0.195594482421875,9.606216430664062,0.9484485983848572,-0.07407660037279129
1685710156649592800,0.2155927734375,9.54684066772461,0.913282573223114,-0.05431964993476868
1685710156669596000,0.235595947265625,9.84410572052002,0.8211920261383057,-0.05540182814002037
1685710156689594400,0.255594482421875,9.976676940917969,0.8230211734771729,0.004175487905740738
1685710156709594400,0.275594482421875,10.084731101989746,0.755878210067749,-0.0012258312199264765
1685710156729594400,0.295594482421875,10.23595905303955,0.7382856011390686,0.08156566321849823
1685710156749594400,0.315594482421875,10.272820472717285,0.6348656415939331,-0.057901374995708466
1685710156769599200,0.33559912109375,10.006239891052246,0.5148682594299316,-0.21728816628456116
1685710156789592800,0.3555927734375,9.768610954284668,0.6106363534927368,-0.20054791867733002
1685710156809594400,0.375594482421875,9.49378490447998,0.6260550022125244,-0.2781679332256317
1685710156829592800,0.3955927734375,9.546802520751953,0.6854599714279175,-0.1993795484304428
1685710156849594400,0.415594482421875,9.537569999694824,0.748197615146637,-0.14239753782749176
1685710156869592800,0.4355927734375,9.596956253051758,0.8083208203315735,-0.0925406888127327
1685710156889592800,0.4555927734375,9.681365966796875,0.8591161966323853,0.021097706630825996
1685710156909594400,0.475594482421875,9.587695121765137,0.8897907137870789,0.13669933378696442
1685710156929592800,0.4955927734375,9.6380033493042,0.8824357390403748,0.07590577006340027
1685710156949592800,0.5155927734375,9.396485328674316,0.9776483178138733,0.03533841669559479
1685710156969594400,0.535594482421875,9.496639251708984,0.9737218022346497,0.16137877106666565
1685710156989594400,0.555594482421875,9.900254249572754,0.86510169506073,0.2000020295381546
1685710157009592800,0.5755927734375,10.175223350524902,0.8392825722694397,0.04458961263298988
1685710157029592800,0.5955927734375,9.94869327545166,0.8121228218078613,-0.1522616595029831
1685710157049592800,0.6155927734375,9.831185340881348,0.7944248914718628,-0.13447752594947815
1685710157069592800,0.6355927734375,9.988188743591309,0.7690750956535339,-0.09387185424566269
1685710157089592800,0.6555927734375,10.029646873474121,0.7388314604759216,-0.050057969987392426
1685710157109592800,0.6755927734375,10.101262092590332,0.7457938194274902,-0.029850905761122704
1685710157129610000,0.69560986328125,9.825401306152344,0.7854322791099548,-0.13816459476947784
1685710157149592800,0.7155927734375,9.553065299987793,0.8328661322593689,-0.28526434302330017
1685710157169592800,0.7355927734375,9.413196563720703,0.7816206812858582,-0.1654106080532074
1685710157189592800,0.7555927734375,9.417945861816406,0.9252727627754211,0.05143703147768974
1685710157209592800,0.7755927734375,9.59404468536377,1.0981533527374268,0.10835199058055878
1685710157229592800,0.7955927734375,9.775372505187988,1.11189603805542,0.26946261525154114
1685710157249592800,0.8155927734375,9.846959114074707,1.0869004726409912,0.2777657210826874
1685710157269592800,0.8355927734375,9.627995491027832,1.101208209991455,0.1626620590686798
1685710157289592800,0.8555927734375,9.589591979980469,0.9399827122688293,-0.009203311055898666
1685710157309592800,0.8755927734375,9.572535514831543,0.8336131572723389,-0.09572018682956696
1685710157329592800,0.8955927734375,9.696986198425293,0.8141147494316101,-0.136574849486351
1685710157349592800,0.9155927734375,9.823639869689941,0.8339387774467468,-0.07859685271978378
1685710157369592800,0.9355927734375,9.677555084228516,0.9857694506645203,0.11525686830282211
1685710157389592800,0.9555927734375,9.457287788391113,0.9308465123176575,0.204503133893013
1685710157409592800,0.9755927734375,9.83531379699707,0.8598822951316833,0.15795984864234924
1685710157429592800,0.9955927734375,9.739498138427734,0.7497777938842773,0.08066544681787491
1685710157449592800,1.0155927734375,9.39476203918457,0.7184520363807678,0.010850521735846996
1685710157469592800,1.0355927734375,9.403006553649902,0.9303675889968872,0.1045021116733551
1685710157489592800,1.0555927734375,9.54694652557373,1.0406157970428467,0.20307618379592896
1685710157509592800,1.0755927734375,9.864225387573242,1.0777164697647095,0.2795374095439911
1685710157529592800,1.0955927734375,9.959563255310059,0.9712797403335571,0.36394739151000977
1685710157549594400,1.115594482421875,10.083505630493164,0.9580254554748535,0.3399096131324768
1685710157569618000,1.135617919921875,10.16319465637207,0.9415724873542786,0.20934900641441345
1685710157589592800,1.1555927734375,10.034109115600586,0.8555153012275696,-0.01663491316139698
1685710157609592800,1.1755927734375,9.825305938720703,0.8371278047561646,-0.026958711445331573
1685710157629592800,1.1955927734375,9.638692855834961,0.8709243535995483,0.0267767533659935
1685710157649592800,1.2155927734375,9.83371353149414,0.8675150275230408,0.001426944276317954
1685710157669592800,1.2355927734375,9.854438781738281,0.8560707569122314,0.05578489974141121
1685710157689592800,1.2555927734375,9.679116249084473,0.8703306317329407,0.054587800055742264
1685710157709592800,1.2755927734375,9.563179016113281,0.9276286363601685,-0.020839132368564606
1685710157729592800,1.2955927734375,9.602492332458496,0.9449818134307861,0.05292143300175667
1685710157749592800,1.3155927734375,9.459280014038086,0.9792572259902954,0.057211846113204956
1685710157769592800,1.3355927734375,9.578463554382324,1.0112724304199219,-0.030205247923731804
1685710157789592800,1.3555927734375,9.603995323181152,1.0510066747665405,0.11988247185945511
1685710157809592800,1.3755927734375,9.5951566696167,1.0545597076416016,-0.0266618300229311
1685710157829610000,1.39560986328125,9.595759391784668,1.005861520767212,-0.05635950714349747
1685710157849592800,1.4155927734375,9.769003868103027,1.0344579219818115,-0.02986048348248005
1685710157869592800,1.4355927734375,9.935583114624023,1.0122971534729004,0.05324704572558403
1685710157889592800,1.4555927734375,9.876062393188477,0.9619615077972412,-0.04006936028599739
1685710157909592800,1.4755927734375,9.736480712890625,0.7902302145957947,-0.16531483829021454
1685710157929592800,1.4955927734375,9.46883773803711,0.8113853931427002,-0.31858205795288086
1685710157949592800,1.5155927734375,9.517967224121094,0.8577658534049988,-0.17670166492462158
1685710157969592800,1.5355927734375,9.501264572143555,0.9337961673736572,-0.010122684761881828
1685710157989592800,1.5555927734375,9.68561840057373,1.0630543231964111,-0.008925584144890308
1685710158009592800,1.5755927734375,9.599532127380371,1.081269383430481,-0.03236003220081329
1685710158029592800,1.5955927734375,9.766322135925293,0.9654091596603394,-0.12799403071403503
1685710158049594400,1.615594482421875,9.778724670410156,0.910907506942749,-0.007987056858837605
1685710158069592800,1.6355927734375,9.887994766235352,0.9238170981407166,0.008370129391551018
1685710158089594400,1.655594482421875,9.898653984069824,0.8680513501167297,-0.07716032862663269
1685710158109594400,1.675594482421875,9.816600799560547,0.8581010103225708,-0.20609287917613983
1685710158129594400,1.695594482421875,9.827987670898438,0.8645557761192322,-0.1397351771593094
1685710158149592800,1.7155927734375,9.950235366821289,0.8531690239906311,-0.018914194777607918
1685710158169592800,1.7355927734375,9.93010425567627,0.8129176497459412,0.01616564951837063
1685710158189592800,1.7555927734375,9.687064170837402,0.7884776592254639,-0.06320692598819733
1685710158209592800,1.7755927734375,9.438891410827637,0.8507460355758667,-0.12893255054950714
1685710158229592800,1.7955927734375,9.422342300415039,0.9640780091285706,-0.09067320823669434
1685710158249592800,1.8155927734375,9.626117706298828,0.9614826440811157,-0.005133168306201696
1685710158269594400,1.835594482421875,9.873064994812012,0.9245736598968506,0.06685569137334824
1685710158289592800,1.8555927734375,9.890610694885254,0.9440912008285522,0.1282142996788025
1685710158309594400,1.875594482421875,9.655116081237793,0.9501916170120239,0.0679953321814537
1685710158329592800,1.8955927734375,9.560133934020996,0.8241704106330872,-0.15956875681877136
1685710158349592800,1.9155927734375,9.546582221984863,0.7869454026222229,-0.14658261835575104
1685710158369592800,1.9355927734375,9.637198448181152,0.8647952079772949,0.02211284637451172
1685710158389592800,1.9555927734375,9.772738456726074,0.8898864984512329,0.11649227887392044
1685710158409592800,1.9755927734375,9.836175918579102,0.8259708881378174,0.03723462298512459
1685710158429592800,1.9955927734375,9.920930862426758,0.795411229133606,0.06848374009132385
1685710158449592800,2.0155927734375,9.91300106048584,0.8225423693656921,0.11071746051311493
1685710158469592800,2.0355927734375,9.981005668640137,0.8364095687866211,0.1742883026599884
1685710158489592800,2.0555927734375,10.155523300170898,0.8940811157226562,0.25829604268074036
1685710158509592800,2.0755927734375,10.02202320098877,0.8876742124557495,0.28601130843162537
1685710158529610000,2.09560986328125,9.820422172546387,0.9531029462814331,0.3214838206768036
1685710158549592800,2.1155927734375,9.787199020385742,0.9728215932846069,0.3996688723564148
1685710158569618000,2.135617919921875,9.62653923034668,0.8766512870788574,0.2631419003009796
1685710158589592800,2.1555927734375,9.562747955322266,0.6788328289985657,0.02217988483607769
1685710158609592800,2.1755927734375,9.437416076660156,0.7571614980697632,0.13559800386428833
1685710158629592800,2.1955927734375,9.431593894958496,0.8775802850723267,0.18140387535095215
1685710158649592800,2.2155927734375,9.496237754821777,0.9191436171531677,0.24446715414524078
1685710158669592800,2.2355927734375,9.593183517456055,0.9984491467475891,0.3831010162830353
1685710158689592800,2.2555927734375,9.714914321899414,1.0380109548568726,0.4591217041015625
1685710158709592800,2.2755927734375,9.686078071594238,1.0014657974243164,0.4085848927497864
1685710158729592800,2.2955927734375,9.675217628479004,0.9390155076980591,0.2962489426136017
1685710158749592800,2.3155927734375,9.550518989562988,0.9013307690620422,0.17725710570812225
1685710158769592800,2.3355927734375,9.471931457519531,0.8908920288085938,0.08858546614646912
1685710158789592800,2.3555927734375,9.617632865905762,0.7913603186607361,0.06584054231643677
1685710158809592800,2.3755927734375,9.954917907714844,0.7897992730140686,0.1722675859928131
1685710158829592800,2.3955927734375,9.915960311889648,0.8300697207450867,0.08780016005039215
1685710158849592800,2.4155927734375,9.834518432617188,0.9228881001472473,0.005583278369158506
1685710158869592800,2.4355927734375,9.993407249450684,1.003036379814148,0.13616304099559784
1685710158889592800,2.4555927734375,10.041099548339844,0.9672670960426331,0.26481786370277405
1685710158909592800,2.4755927734375,9.919092178344727,0.8714319467544556,0.26561272144317627
1685710158929592800,2.4955927734375,9.677908897399902,0.8438603281974792,0.04937801882624626
1685710158949592800,2.5155927734375,9.449703216552734,0.8556972742080688,-0.08598056435585022
1685710158969592800,2.5355927734375,9.556685447692871,0.8910452723503113,-0.08025363832712173
1685710158989592800,2.5555927734375,9.864015579223633,0.9618657231330872,0.037521932274103165
1685710159009592800,2.5755927734375,10.011938095092773,0.9745550155639648,0.15824715793132782
1685710159029592800,2.5955927734375,9.870086669921875,0.9346579909324646,0.12285128235816956
1685710159049594400,2.615594482421875,9.676156044006348,0.8645175099372864,-0.0437181256711483
1685710159069592800,2.6355927734375,9.265052795410156,0.7334493398666382,-0.3428879976272583
1685710159089592800,2.6555927734375,9.148283004760742,0.8685110211372375,-0.39094439148902893
1685710159109592800,2.6755927734375,9.36008358001709,0.9742485284805298,-0.1954817771911621
1685710159129592800,2.6955927734375,9.720909118652344,0.9968115091323853,0.028749573975801468
1685710159149592800,2.7155927734375,9.978371620178223,1.0463619232177734,0.150030255317688
1685710159169592800,2.7355927734375,10.10962200164795,1.0361818075180054,0.14293383061885834
1685710159189592800,2.7555927734375,9.974167823791504,0.8988120555877686,-0.04297113046050072
1685710159209592800,2.7755927734375,9.810585975646973,0.7703009247779846,-0.24779988825321198
1685710159229610000,2.79560986328125,9.558908462524414,0.7281342148780823,-0.285226047039032
1685710159249592800,2.8155927734375,9.536344528198242,0.7522773146629333,-0.30437007546424866
1685710159269592800,2.8355927734375,9.62112808227539,0.8075259327888489,-0.15385138988494873
1685710159289592800,2.8555927734375,9.789631843566895,0.9593949317932129,0.025321077555418015
1685710159309592800,2.8755927734375,9.822882652282715,1.0197670459747314,0.09515514969825745
1685710159329592800,2.8955927734375,9.79918098449707,1.044915795326233,0.11985373497009277
1685710159349592800,2.9155927734375,9.977710723876953,0.9359126091003418,0.13975435495376587
1685710159369592800,2.9355927734375,10.001126289367676,0.8334982395172119,0.07465120404958725
1685710159389592800,2.9555927734375,9.765499114990234,0.8052849769592285,-0.05215528979897499
1685710159409592800,2.9755927734375,9.628252983093262,0.778718888759613,-0.08742666989564896
1685710159429592800,2.9955927734375,9.586594581604004,0.7546715140342712,-0.0811634361743927
1685710159449592800,3.0155927734375,9.64610481262207,0.7776750326156616,0.015964535996317863
1685710159469592800,3.0355927734375,9.598143577575684,0.8108969926834106,0.11792880296707153
1685710159489592800,3.0555927734375,9.806401252746582,0.8216421604156494,0.11664550751447678
1685710159509592800,3.0755927734375,9.641852378845215,0.8953739404678345,0.19161275029182434
1685710159529592800,3.0955927734375,9.609033584594727,0.8903557062149048,0.21657948195934296
1685710159549592800,3.1155927734375,9.745865821838379,0.8544139862060547,0.32535284757614136
1685710159569622500,3.13562255859375,9.644610404968262,0.9631586074829102,0.2924756705760956
1685710159589592800,3.1555927734375,9.388775825500488,0.9886425137519836,0.11971008032560349
1685710159609592800,3.1755927734375,9.562451362609863,0.9271498322486877,0.16360057890415192
1685710159629592800,3.1955927734375,9.781204223632812,0.8700624704360962,0.3167145550251007
1685710159649592800,3.2155927734375,10.015548706054688,0.7708467245101929,0.2698648273944855
1685710159669592800,3.2355927734375,9.939872741699219,0.6720620393753052,0.1502217799425125
1685710159689592800,3.2555927734375,9.727785110473633,0.7458896040916443,0.050891149789094925
1685710159709592800,3.2755927734375,9.706878662109375,0.8261719942092896,0.11799583584070206
1685710159729592800,3.2955927734375,10.009669303894043,0.9097487926483154,0.2526361644268036
1685710159749592800,3.3155927734375,9.977107048034668,0.8894171714782715,0.35092294216156006
1685710159769592800,3.3355927734375,9.819549560546875,0.8649963140487671,0.3381762206554413
1685710159789592800,3.3555927734375,9.64382553100586,0.8288056254386902,0.16531483829021454
1685710159809592800,3.3755927734375,9.340106010437012,0.8467046618461609,-0.025110388174653053
1685710159829592800,3.3955927734375,9.304125785827637,0.8922902345657349,-0.014269442297518253
1685710159849592800,3.4155927734375,9.629230499267578,0.9368128180503845,0.17923951148986816
1685710159869592800,3.4355927734375,10.108396530151367,0.9282703399658203,0.4090445935726166
1685710159889592800,3.4555927734375,10.24300765991211,0.9308847784996033,0.41872671246528625
1685710159909592800,3.4755927734375,9.948415756225586,0.8452681303024292,0.18501432240009308
1685710159929610000,3.49560986328125,9.673551559448242,0.7287757992744446,-0.04628470540046692
1685710159949592800,3.5155927734375,9.56799602508545,0.6591907739639282,-0.16354313492774963
1685710159969592800,3.5355927734375,9.411482810974121,0.7558398842811584,-0.13178643584251404
1685710159989592800,3.5555927734375,9.34040355682373,0.9001527428627014,-0.06023811176419258
1685710160009592800,3.5755927734375,9.502950668334961,0.9578817486763,0.026441562920808792
1685710160029592800,3.5955927734375,9.708612442016602,0.9868324398994446,0.13195881247520447
1685710160049594400,3.615594482421875,9.835638999938965,1.0120577812194824,0.18960162997245789
1685710160069592800,3.6355927734375,9.916563034057617,0.9594619870185852,0.12416329979896545
1685710160089592800,3.6555927734375,9.924397468566895,0.8657050132751465,0.06809109449386597
1685710160109592800,3.6755927734375,9.809503555297852,0.7950186133384705,-0.024114398285746574
1685710160129592800,3.6955927734375,9.69848918914795,0.7802607417106628,-0.10435846447944641
1685710160149592800,3.7155927734375,9.71614933013916,0.753072202205658,-0.055650826543569565
1685710160169592800,3.7355927734375,9.707348823547363,0.7789870500564575,-0.02277364768087864
1685710160189592800,3.7555927734375,9.602012634277344,0.866308331489563,0.00968215148895979
1685710160209592800,3.7755927734375,9.604129791259766,0.91727614402771,0.03333686292171478
1685710160229592800,3.7955927734375,9.69908332824707,0.9382493495941162,0.06321649998426437
1685710160249592800,3.8155927734375,9.758430480957031,0.9082452058792114,0.09024225175380707
1685710160269592800,3.8355927734375,9.834586143493652,0.9143264889717102,0.18986019492149353
1685710160289592800,3.8555927734375,9.868487358093262,0.9818429350852966,0.2252177596092224
1685710160309592800,3.8755927734375,9.771474838256836,0.9815556406974792,0.11224975436925888
1685710160329592800,3.8955927734375,9.676386833190918,0.9288161396980286,0.0051810527220368385
1685710160349592800,3.9155927734375,9.737802505493164,0.9138667583465576,0.00031603462412022054
1685710160369592800,3.9355927734375,9.858135223388672,0.9053146839141846,0.045652639120817184
1685710160389592800,3.9555927734375,9.797858238220215,0.8203109502792358,0.010113107971847057
1685710160409592800,3.9755927734375,9.71886920928955,0.7180593609809875,-0.1316140592098236
1685710160429592800,3.9955927734375,9.600691795349121,0.7560409903526306,-0.17557159066200256
1685710160449592800,4.0155927734375,9.593402862548828,0.9054008722305298,-0.1474923938512802
1685710160469592800,4.0355927734375,9.678972244262695,0.9474430680274963,-0.030866049230098724
1685710160489592800,4.0555927734375,9.879759788513184,0.9094039797782898,0.1395915448665619
1685710160509592800,4.0755927734375,9.895293235778809,0.8305006623268127,0.1331559121608734
1685710160529592800,4.0955927734375,9.559855461120605,0.7976235151290894,-0.06360915303230286
1685710160549592800,4.1155927734375,9.34683895111084,0.844224214553833,-0.14556746184825897
1685710160569618000,4.135617919921875,9.574700355529785,0.8860557079315186,0.03787627071142197
1685710160589592800,4.1555927734375,9.785543441772461,0.8715181350708008,0.20541293919086456
1685710160609592800,4.1755927734375,9.882479667663574,0.829389750957489,0.31011614203453064
1685710160629610000,4.19560986328125,9.860989570617676,0.8321958184242249,0.2907518744468689
1685710160649592800,4.2155927734375,9.604426383972168,0.769745409488678,0.13626839220523834
1685710160669592800,4.2355927734375,9.547358512878418,0.7921455502510071,0.050986919552087784
1685710160689592800,4.2555927734375,9.694716453552246,0.8663562536239624,0.20036594569683075
1685710160709594400,4.275594482421875,9.940993309020996,0.9561579823493958,0.4264456033706665
1685710160729592800,4.2955927734375,9.98674201965332,0.9159066677093506,0.3921032249927521
1685710160749592800,4.3155927734375,9.907350540161133,0.8186445832252502,0.2799109220504761
1685710160769592800,4.3355927734375,9.612115859985352,0.836007297039032,0.1401565670967102
1685710160789592800,4.3555927734375,9.394397735595703,0.7844266891479492,0.0030741551890969276
1685710160809592800,4.3755927734375,9.479190826416016,0.8890149593353271,0.04554729536175728
1685710160829592800,4.3955927734375,9.783703804016113,0.9686748385429382,0.234382763504982
1685710160849592800,4.4155927734375,10.082433700561523,0.9236734509468079,0.44114601612091064
1685710160869592800,4.4355927734375,10.067943572998047,0.8938034176826477,0.40953299403190613
1685710160889592800,4.4555927734375,9.871236801147461,0.8619796633720398,0.23905624449253082
1685710160909592800,4.4755927734375,9.591670036315918,0.7668915390968323,0.04113238677382469
1685710160929592800,4.4955927734375,9.434926986694336,0.7464163303375244,-0.03982993960380554
1685710160949592800,4.5155927734375,9.474325180053711,0.8074684739112854,-0.05547844246029854
1685710160969592800,4.5355927734375,9.690071105957031,0.8296196460723877,0.11414595693349838
1685710160989592800,4.5555927734375,9.9153470993042,0.7948558330535889,0.21747970581054688
1685710161009592800,4.5755927734375,9.927816390991211,0.8717862963676453,0.32203927636146545
1685710161029592800,4.5955927734375,9.885553359985352,0.8435347080230713,0.13480313122272491
1685710161049594400,4.615594482421875,9.523962020874023,0.8026418089866638,-0.002221819246187806
1685710161069592800,4.6355927734375,9.471338272094727,0.8381142616271973,-0.02488054521381855
1685710161089592800,4.6555927734375,9.552825927734375,0.9239703416824341,0.23763889074325562
1685710161109592800,4.6755927734375,9.76868724822998,0.9734249114990234,0.35117194056510925
1685710161129592800,4.6955927734375,9.759552001953125,0.8992334008216858,0.3198174834251404
1685710161149592800,4.7155927734375,9.724682807922363,0.8881626725196838,0.24555890262126923
1685710161169592800,4.7355927734375,9.794391632080078,0.8406617045402527,0.11914505064487457
1685710161189592800,4.7555927734375,9.857819557189941,0.8337855339050293,0.03967671096324921
1685710161209592800,4.7755927734375,9.826618194580078,0.877321720123291,0.05932832136750221
1685710161229592800,4.7955927734375,9.887201309204102,0.9156480431556702,0.13786770403385162
1685710161249592800,4.8155927734375,10.026102066040039,0.8785379528999329,0.1406545490026474
1685710161269592800,4.8355927734375,9.887947082519531,0.8041261434555054,0.034361582249403
1685710161289592800,4.8555927734375,9.760958671569824,0.8253483772277832,0.010218452662229538
1685710161309592800,4.8755927734375,9.59715747833252,0.8408053517341614,-0.012478579767048359
1685710161329610000,4.89560986328125,9.339885711669922,0.7967232465744019,-0.1289421170949936
1685710161349592800,4.9155927734375,9.358531951904297,0.8775036334991455,-0.10981724411249161
1685710161369592800,4.9355927734375,9.49614143371582,0.9466865062713623,-0.0388626828789711
1685710161389592800,4.9555927734375,9.802120208740234,0.9113576412200928,0.09050082415342331
1685710161409592800,4.9755927734375,10.13315200805664,0.8866016268730164,0.1613692045211792
1685710161429592800,4.9955927734375,10.035325050354004,0.881449282169342,0.07927680760622025
1685710161449592800,5.0155927734375,9.671416282653809,0.860772967338562,-0.08150820434093475
1685710161469592800,5.0355927734375,9.483394622802734,0.8630809783935547,-0.1620970368385315
1685710161489592800,5.0555927734375,9.499014854431152,0.8271296620368958,-0.1696626991033554
1685710161509592800,5.0755927734375,9.568466186523438,0.8105809092521667,-0.06641515344381332
1685710161529594400,5.095594482421875,9.661465644836426,0.8831252455711365,0.024143129587173462
1685710161549592800,5.1155927734375,9.745702743530273,0.9336620569229126,-0.032024841755628586
1685710161569622500,5.13562255859375,9.821340560913086,0.9627180695533752,0.06368576735258102
1685710161589592800,5.1555927734375,9.907092094421387,0.9837104678153992,0.09143935143947601
1685710161609594400,5.175594482421875,9.881301879882812,0.9487934112548828,0.09396763145923615
1685710161629594400,5.195594482421875,9.730256080627441,0.9122770428657532,0.03704308718442917
1685710161649592800,5.2155927734375,9.722604751586914,0.8538393378257751,-0.005267243832349777
1685710161669592800,5.2355927734375,9.776637077331543,0.7166132926940918,-0.09057743847370148
1685710161689592800,5.2555927734375,9.674691200256348,0.7214016914367676,-0.10175357013940811
1685710161709592800,5.2755927734375,9.505497932434082,0.7531775236129761,-0.1032092422246933
1685710161729592800,5.2955927734375,9.757329940795898,0.792040228843689,0.07660488039255142
1685710161749592800,5.3155927734375,9.791097640991211,0.8728492856025696,0.09294290840625763
1685710161769592800,5.3355927734375,9.510162353515625,0.9279542565345764,-0.021815964952111244
1685710161789592800,5.3555927734375,9.433450698852539,1.0251684188842773,0.014556746929883957
1685710161809592800,5.3755927734375,9.724825859069824,0.9843329191207886,0.23308990895748138
1685710161829592800,5.3955927734375,9.952150344848633,0.9290077090263367,0.3056725263595581
1685710161849592800,5.4155927734375,9.984769821166992,0.8264879584312439,0.2554134428501129
1685710161869592800,5.4355927734375,9.965414047241211,0.7793988585472107,0.19421763718128204
1685710161889592800,5.4555927734375,9.919761657714844,0.7942429184913635,0.13457328081130981
1685710161909592800,5.4755927734375,9.88927936553955,0.7830955386161804,0.134822279214859
1685710161929594400,5.495594482421875,9.761600494384766,0.8239405751228333,0.18280209600925446
1685710161949594400,5.515594482421875,9.651267051696777,0.9084750413894653,0.24474486708641052
1685710161969592800,5.5355927734375,9.561283111572266,0.9565410017967224,0.323983371257782
1685710161989592800,5.5555927734375,9.597061157226562,1.0046356916427612,0.3027516007423401
1685710162009592800,5.5755927734375,9.495537757873535,1.0537264347076416,0.29147011041641235
1685710162029610000,5.59560986328125,9.595041275024414,0.9854726195335388,0.29306942224502563
1685710162049594400,5.615594482421875,9.744812965393066,0.8364478945732117,0.20668664574623108
1685710162069592800,5.6355927734375,9.694352149963379,0.7426717877388,0.05542098358273506
1685710162089592800,5.6555927734375,9.675803184509277,0.7696880102157593,-0.019517531618475914
1685710162109592800,5.6755927734375,9.725065231323242,0.778718888759613,0.043756432831287384
1685710162129592800,5.6955927734375,9.837315559387207,0.7673129439353943,0.01687433384358883
1685710162149592800,5.7155927734375,9.7434720993042,0.8387654423713684,0.0372154675424099
1685710162169592800,5.7355927734375,9.691622734069824,0.974966824054718,0.09555738419294357
1685710162189592800,5.7555927734375,9.694438934326172,0.9747082591056824,0.15621687471866608
1685710162209592800,5.7755927734375,9.75405502319336,0.9328384399414062,0.12209471315145493
1685710162229592800,5.7955927734375,9.59023380279541,0.8819281458854675,0.0656394362449646
1685710162249592800,5.8155927734375,9.65886116027832,0.8967817425727844,-0.012727576307952404
1685710162269594400,5.835594482421875,9.675179481506348,0.8652453422546387,-0.04983770474791527
1685710162289594400,5.855594482421875,9.880315780639648,0.8719490766525269,0.04440765455365181
1685710162309592800,5.8755927734375,10.11087703704834,0.840192437171936,0.11053550988435745
1685710162329594400,5.895594482421875,10.01736831665039,0.8296866416931152,0.07704541087150574
1685710162349594400,5.915594482421875,9.73965072631836,0.8229349851608276,-0.023760057985782623
1685710162369592800,5.9355927734375,9.616415977478027,0.8375396132469177,-0.06606081128120422
1685710162389594400,5.955594482421875,9.337041854858398,0.8256356716156006,-0.1367184966802597
1685710162409594400,5.975594482421875,9.172626495361328,0.9601898193359375,-0.11121545732021332
1685710162429594400,5.995594482421875,9.353532791137695,0.9826953411102295,-0.02142331749200821
1685710162449594400,6.015594482421875,9.78068733215332,0.9442348480224609,0.13374967873096466
1685710162469592800,6.0355927734375,10.048550605773926,0.940001904964447,0.20337305963039398
1685710162489594400,6.055594482421875,10.018919944763184,0.9059563875198364,0.05437710881233215
1685710162509594400,6.075594482421875,9.817317962646484,0.8500852584838867,-0.06607996672391891
1685710162529594400,6.095594482421875,9.843894958496094,0.7869166135787964,-0.0226299948990345
1685710162549594400,6.115594482421875,9.799457550048828,0.7800213694572449,0.045767560601234436
1685710162569622500,6.13562255859375,9.683579444885254,0.7923275232315063,0.04433104023337364
1685710162589594400,6.155594482421875,9.561723709106445,0.8217283487319946,0.017113754525780678
1685710162609594400,6.175594482421875,9.811103820800781,0.8832976222038269,0.06716214865446091
1685710162629594400,6.195594482421875,9.959322929382324,0.8984960317611694,0.1479520946741104
1685710162649592800,6.2155927734375,9.914830207824707,0.9375023245811462,0.1459696888923645
1685710162669594400,6.235594482421875,9.82583236694336,0.925502598285675,0.19588400423526764
1685710162689594400,6.255594482421875,9.678905487060547,0.899080216884613,0.0987081453204155
1685710162709594400,6.275594482421875,9.321134567260742,0.8474228978157043,-0.03061705268919468
1685710162729610000,6.29560986328125,9.3130521774292,0.8675533533096313,-0.04897578805685043
1685710162749594400,6.315594482421875,9.579143524169922,0.9027385115623474,0.03466803953051567
1685710162769594400,6.335594482421875,9.709905624389648,0.87636399269104,0.10910855978727341
1685710162789594400,6.355594482421875,9.796565055847168,0.8331247568130493,0.12236285954713821
1685710162809594400,6.375594482421875,9.879376411437988,0.8031972050666809,0.09593086689710617
1685710162829594400,6.395594482421875,9.784767150878906,0.8143158555030823,0.048449065536260605
1685710162849594400,6.415594482421875,9.714751243591309,0.8365628123283386,0.012200850993394852
1685710162869594400,6.435594482421875,9.824836730957031,0.914901077747345,0.1670386642217636
1685710162889594400,6.455594482421875,9.887718200683594,0.9629479646682739,0.2192993015050888
1685710162909594400,6.475594482421875,9.856794357299805,0.9587532877922058,0.2273821234703064
1685710162929594400,6.495594482421875,9.84126091003418,0.8955080509185791,0.16839857399463654
1685710162949594400,6.515594482421875,9.706964492797852,0.815398097038269,0.09601707011461258
1685710162969594400,6.535594482421875,9.621635437011719,0.7663552165031433,0.04732858017086983
1685710162989594400,6.555594482421875,9.596007347106934,0.818673312664032,0.07904696464538574
1685710163009594400,6.575594482421875,9.694830894470215,0.8887372612953186,0.17067785561084747
1685710163029594400,6.595594482421875,9.786615371704102,0.9693548083305359,0.2814527750015259
1685710163049594400,6.615594482421875,9.79885482788086,0.9363435506820679,0.296651154756546
1685710163069594400,6.635594482421875,9.738970756530762,0.920417308807373,0.2334059327840805
1685710163089594400,6.655594482421875,9.664502143859863,0.8449137806892395,0.098478302359581
1685710163109594400,6.675594482421875,9.558878898620605,0.777636706829071,0.0006991068948991597
1685710163129594400,6.695594482421875,9.5879545211792,0.8102648854255676,-0.057403381913900375
1685710163149594400,6.715594482421875,9.613840103149414,0.8467812538146973,0.04237736761569977
1685710163169594400,6.735594482421875,9.690722465515137,0.8363329172134399,0.08155608177185059
1685710163189594400,6.755594482421875,9.824807167053223,0.8593364357948303,0.18448761105537415
1685710163209594400,6.775594482421875,9.824625968933105,0.9045293927192688,0.1424071192741394
1685710163229594400,6.795594482421875,9.676960945129395,0.931124210357666,0.0790373831987381
1685710163249594400,6.815594482421875,9.607146263122559,0.9527773261070251,0.06921158730983734
1685710163269594400,6.835594482421875,9.838062286376953,0.9058797359466553,0.19455282390117645
1685710163289594400,6.855594482421875,9.893367767333984,0.857852041721344,0.24160368740558624
1685710163309594400,6.875594482421875,9.788683891296387,0.8143925070762634,0.13976392149925232
1685710163329594400,6.895594482421875,9.614855766296387,0.8063575625419617,0.06099468097090721
1685710163349594400,6.915594482421875,9.666263580322266,0.8888042569160461,0.01368525717407465
1685710163369594400,6.935594482421875,9.82320785522461,0.9226391315460205,0.09436985850334167
1685710163389594400,6.955594482421875,9.884940147399902,0.9289502501487732,0.1766633540391922
1685710163409594400,6.975594482421875,9.833005905151367,0.9417544603347778,0.23146183788776398
1685710163429610000,6.99560986328125,9.815154075622559,0.9129186868667603,0.14075033366680145
1685710163449594400,7.015594482421875,9.578444480895996,0.8466280698776245,-0.024823084473609924
1685710163469594400,7.035594482421875,9.500853538513184,0.9192489385604858,-0.02433466538786888
1685710163489594400,7.055594482421875,9.630446434020996,0.8487061858177185,0.005075707565993071
1685710163509594400,7.075594482421875,9.736433029174805,0.8100446462631226,0.0050661307759583
1685710163529594400,7.095594482421875,9.817098617553711,0.8585224151611328,0.09671617299318314
1685710163549594400,7.115594482421875,9.769750595092773,0.8656762838363647,0.08856631070375443
1685710163569619500,7.135619384765625,9.698240280151367,0.7943195104598999,-0.03521391749382019
1685710163589594400,7.155594482421875,9.65711784362793,0.8285183310508728,-0.02134670317173004
1685710163609594400,7.175594482421875,9.705615043640137,0.927121102809906,0.06114790961146355
1685710163629594400,7.195594482421875,9.705806732177734,0.9552960991859436,0.07785943895578384
1685710163649594400,7.215594482421875,9.656150817871094,0.9054200649261475,0.05920381844043732
1685710163669594400,7.235594482421875,9.664827346801758,0.8966572880744934,0.06201940029859543
1685710163689594400,7.255594482421875,9.737878799438477,0.8532456159591675,0.07852981239557266
1685710163709594400,7.275594482421875,9.741288185119629,0.8580531477928162,0.04749138653278351
1685710163729594400,7.295594482421875,9.703852653503418,0.8344654440879822,0.036602552980184555
1685710163749592800,7.3155927734375,9.784738540649414,0.8310369849205017,0.08877699822187424
1685710163769592800,7.3355927734375,9.819368362426758,0.8795243501663208,0.14577814936637878
1685710163789594400,7.355594482421875,9.70617961883545,0.913703978061676,0.1115027591586113
1685710163809592800,7.3755927734375,9.541257858276367,0.9440241456031799,0.09957963228225708
1685710163829592800,7.3955927734375,9.640023231506348,0.9078046679496765,0.10909898579120636
1685710163849592800,7.4155927734375,9.770708084106445,0.8467429280281067,0.09251195192337036
1685710163869592800,7.4355927734375,9.78809928894043,0.8520389199256897,0.0643274113535881
1685710163889592800,7.4555927734375,9.701314926147461,0.7557632923126221,-0.025148695334792137
1685710163909592800,7.4755927734375,9.732889175415039,0.7458800077438354,-0.03677493706345558
1685710163929592800,7.4955927734375,9.717087745666504,0.832521378993988,0.10251971334218979
1685710163949592800,7.5155927734375,9.786184310913086,0.9990333318710327,0.20049044489860535
1685710163969592800,7.5355927734375,9.838569641113281,1.0283000469207764,0.26848578453063965
1685710163989592800,7.5555927734375,9.893387794494629,1.019776701927185,0.34624946117401123
1685710164009592800,7.5755927734375,9.84676742553711,0.9188563227653503,0.3592930734157562
1685710164029592800,7.5955927734375,9.70579719543457,0.7847043871879578,0.2581619918346405
1685710164049594400,7.615594482421875,9.619720458984375,0.6681163311004639,0.07315722852945328
1685710164069594400,7.635594482421875,9.468550682067871,0.7402488589286804,0.02679590694606304
1685710164089594400,7.655594482421875,9.498517036437988,0.8451723456382751,0.08959102630615234
1685710164109594400,7.675594482421875,9.697474479675293,0.9582935571670532,0.24886289238929749
1685710164129610000,7.69560986328125,9.833905220031738,1.0379343032836914,0.36960726976394653
1685710164149594400,7.715594482421875,9.978045463562012,1.0253407955169678,0.358948290348053
1685710164169594400,7.735594482421875,9.779394149780273,0.9531508684158325,0.27610892057418823
1685710164189594400,7.755594482421875,9.699801445007324,0.9278489351272583,0.0942070484161377
1685710164209594400,7.775594482421875,9.67281436920166,0.8759713768959045,0.095729760825634
1685710164229592800,7.7955927734375,9.641861915588379,0.802756667137146,0.08064629137516022
1685710164249592800,7.8155927734375,9.589343070983887,0.7461386322975159,0.04254017770290375
1685710164269592800,7.8355927734375,9.568350791931152,0.8164515495300293,0.03539587929844856
1685710164289592800,7.8555927734375,9.636767387390137,0.8870421648025513,0.14893849194049835
1685710164309592800,7.8755927734375,9.790321350097656,0.9502586722373962,0.17242082953453064
1685710164329592800,7.8955927734375,9.889997482299805,0.9511205554008484,0.21524830162525177
1685710164349592800,7.9155927734375,9.935937881469727,0.9938809871673584,0.23295582830905914
1685710164369592800,7.9355927734375,9.836128234863281,0.9426354765892029,0.19582654535770416
1685710164389592800,7.9555927734375,9.828168869018555,0.8813918232917786,0.12728534638881683
1685710164409592800,7.9755927734375,9.68742847442627,0.8258750438690186,-0.0055641247890889645
1685710164429592800,7.9955927734375,9.518492698669434,0.8139902949333191,-0.04590163379907608
1685710164449592800,8.0155927734375,9.612652778625488,0.8157427906990051,-0.013666103594005108
1685710164469592800,8.0355927734375,9.707980155944824,0.8650442361831665,0.0533236600458622
1685710164489592800,8.0555927734375,9.799304962158203,0.9307219982147217,0.16063177585601807
1685710164509592800,8.0755927734375,9.847533226013184,0.9641162753105164,0.21521957218647003
1685710164529592800,8.0955927734375,9.795684814453125,0.9320052266120911,0.18117402493953705
1685710164549592800,8.1155927734375,9.668782234191895,0.9401646852493286,0.14670710265636444
1685710164569622500,8.13562255859375,9.545585632324219,0.931574285030365,0.07841489464044571
1685710164589592800,8.1555927734375,9.525418281555176,0.8733377456665039,0.006607996299862862
1685710164609592800,8.1755927734375,9.586526870727539,0.8869655132293701,0.0034859576262533665
1685710164629592800,8.1955927734375,9.782478332519531,0.886764407157898,0.02341529354453087
1685710164649592800,8.2155927734375,9.914283752441406,0.8401733040809631,0.06205770745873451
1685710164669592800,8.2355927734375,9.95812702178955,0.8569326996803284,0.03121081367135048
1685710164689592800,8.2555927734375,9.891863822937012,0.8709339499473572,-0.02241930365562439
1685710164709592800,8.2755927734375,9.761351585388184,0.921920895576477,-0.06011361628770828
1685710164729592800,8.2955927734375,9.70210075378418,0.9377896785736084,0.009548076428472996
1685710164749592800,8.3155927734375,9.710249900817871,0.8626596331596375,0.1130446270108223
1685710164769592800,8.3355927734375,9.734939575195312,0.8264975547790527,0.13417106866836548
1685710164789650700,8.355650634765626,9.5884428024292,0.8471643328666687,0.06927862018346786
1685710164809592800,8.3755927734375,9.552817344665527,0.8939182758331299,0.019823990762233734
1685710164829610000,8.39560986328125,9.691258430480957,0.9329533576965332,0.035654451698064804
1685710164849592800,8.4155927734375,9.774998664855957,0.9487455487251282,0.08431421220302582
1685710164869592800,8.4355927734375,9.751229286193848,0.9835380911827087,0.13647907972335815
1685710164889592800,8.4555927734375,9.840264320373535,1.0123738050460815,0.18587623536586761
1685710164909592800,8.4755927734375,9.791173934936523,0.9540223479270935,0.11376288533210754
1685710164929592800,8.4955927734375,9.713112831115723,0.8787103295326233,-0.005219359882175922
1685710164949592800,8.5155927734375,9.659214973449707,0.8844180703163147,-0.006722918711602688
1685710164969592800,8.5355927734375,9.744698524475098,0.8264592885971069,-0.007738059852272272
1685710164989592800,8.5555927734375,9.829011917114258,0.7755489349365234,0.026221295818686485
1685710165009592800,8.5755927734375,9.759771347045898,0.8415810465812683,0.05957731604576111
1685710165029592800,8.5955927734375,9.734776496887207,0.910026490688324,0.04038539528846741
1685710165049594400,8.615594482421875,9.661149024963379,0.954204261302948,0.06768887490034103
1685710165069592800,8.6355927734375,9.67668342590332,0.9816514253616333,0.07077260315418243
1685710165089592800,8.6555927734375,9.542521476745605,0.9803968667984009,0.09873687475919724
1685710165109592800,8.6755927734375,9.694390296936035,0.9844574332237244,0.1284441351890564
1685710165129592800,8.6955927734375,9.800827026367188,0.9326277375221252,0.10534486919641495
1685710165149592800,8.7155927734375,9.782210350036621,0.8551896810531616,-0.01189439371228218
1685710165169592800,8.7355927734375,9.745377540588379,0.8601600527763367,-0.014623784460127354
1685710165189592800,8.7555927734375,9.714128494262695,0.8420120477676392,-0.036861129105091095
1685710165209592800,8.7755927734375,9.604186058044434,0.8407670259475708,-0.07695922255516052
1685710165229592800,8.7955927734375,9.626089096069336,0.8555344939231873,0.02817496471107006
1685710165249592800,8.8155927734375,9.735733985900879,0.9175634384155273,0.08044517785310745
1685710165269592800,8.8355927734375,9.796977996826172,0.9422620534896851,0.16473065316677094
1685710165289592800,8.8555927734375,9.874980926513672,0.945633053779602,0.21861933171749115
1685710165309592800,8.8755927734375,9.845024108886719,0.9476729035377502,0.18186356127262115
1685710165329592800,8.8955927734375,9.725927352905273,0.931449830532074,0.09606494754552841
1685710165349592800,8.9155927734375,9.709943771362305,0.98145991563797,0.0919373482465744
1685710165369592800,8.9355927734375,9.70175552368164,0.8779729008674622,0.0595964714884758
1685710165389592800,8.9555927734375,9.820460319519043,0.7829805612564087,0.12077310681343079
1685710165409592800,8.9755927734375,9.892946243286133,0.8455937504768372,0.1457590013742447
1685710165429592800,8.9955927734375,9.648737907409668,0.9284618496894836,0.01936430297791958
1685710165449592800,9.0155927734375,9.524824142456055,1.0090889930725098,0.028404807671904564
1685710165469592800,9.0355927734375,9.786041259765625,0.9887574315071106,0.22595518827438354
1685710165489592800,9.0555927734375,9.799208641052246,0.9018957614898682,0.23455514013767242
1685710165509592800,9.0755927734375,9.656830787658691,0.9069715142250061,0.17971836030483246
1685710165529608400,9.0956083984375,9.572124481201172,0.8826368451118469,0.026001030579209328
1685710165549592800,9.1155927734375,9.628435134887695,0.9061095714569092,-0.02201707847416401
1685710165569618000,9.135617919921875,9.835160255432129,0.8719969987869263,0.05689580738544464
1685710165589592800,9.1555927734375,10.037068367004395,0.8932095766067505,0.18438225984573364
1685710165609592800,9.1755927734375,10.070069313049316,0.904941201210022,0.18632635474205017
1685710165629592800,9.1955927734375,9.861822128295898,0.8982565999031067,0.15619772672653198
1685710165649592800,9.2155927734375,9.600384712219238,0.850056529045105,0.005353434942662716
1685710165669592800,9.2355927734375,9.458915710449219,0.8384685516357422,-0.05012500658631325
1685710165689592800,9.2555927734375,9.528712272644043,0.9299558401107788,0.12967953085899353
1685710165709592800,9.2755927734375,9.681451797485352,0.9179847836494446,0.2507016360759735
1685710165729592800,9.2955927734375,9.725707054138184,0.8877125382423401,0.2531532943248749
1685710165749592800,9.3155927734375,9.740694046020508,0.9101892709732056,0.2489299327135086
1685710165769594400,9.335594482421875,9.816140174865723,0.9361424446105957,0.17268897593021393
1685710165789592800,9.3555927734375,9.765900611877441,0.9182626008987427,0.10342951118946075
1685710165809592800,9.3755927734375,9.770373344421387,0.9107255935668945,0.13370180130004883
1685710165829592800,9.3955927734375,9.79196834564209,0.9080824255943298,0.19673635065555573
1685710165849592800,9.4155927734375,9.729374885559082,0.9090113639831543,0.16256630420684814
1685710165869592800,9.4355927734375,9.63268756866455,0.8588192462921143,0.0866030678153038
1685710165889592800,9.4555927734375,9.513015747070312,0.8234521746635437,-0.034323275089263916
1685710165909592800,9.4755927734375,9.593135833740234,0.8244864344596863,-0.0404045470058918
1685710165929592800,9.4955927734375,9.842668533325195,0.8664999008178711,0.12348334491252899
1685710165949592800,9.5155927734375,9.92629337310791,0.9967635869979858,0.2808685898780823
1685710165969592800,9.5355927734375,9.979214668273926,1.0432590246200562,0.36813244223594666
1685710165989592800,9.5555927734375,10.04675006866455,0.9760681986808777,0.3402256369590759
1685710166009592800,9.5755927734375,9.85575008392334,0.8644025921821594,0.21665610373020172
1685710166029592800,9.5955927734375,9.50578498840332,0.8902791142463684,0.04096957668662071
1685710166049592800,9.6155927734375,9.39781665802002,0.868779182434082,-0.018904617056250572
1685710166069592800,9.6355927734375,9.577122688293457,0.8458618521690369,-0.04477157071232796
1685710166089592800,9.6555927734375,9.655136108398438,0.9131197929382324,0.04916732758283615
1685710166109592800,9.6755927734375,9.768284797668457,0.9033035635948181,0.1353011280298233
1685710166129592800,9.6955927734375,10.05966854095459,0.8990036249160767,0.1933365762233734
1685710166149592800,9.7155927734375,9.953423500061035,0.8978735208511353,0.12508267164230347
1685710166169592800,9.7355927734375,9.685857772827148,0.9265081882476807,0.0018770541064441204
1685710166189592800,9.7555927734375,9.589611053466797,0.9600557088851929,-0.004347870126366615
1685710166209592800,9.7755927734375,9.746708869934082,0.9407297372817993,0.13052229583263397
1685710166229608400,9.7956083984375,9.785399436950684,0.9459203481674194,0.21359151601791382
1685710166249592800,9.8155927734375,9.807943344116211,0.8648144006729126,0.2056906521320343
1685710166269592800,9.8355927734375,9.723093032836914,0.7771483063697815,0.00859039556235075
1685710166289592800,9.8555927734375,9.621291160583496,0.7953059077262878,-0.061128757894039154
1685710166309592800,9.8755927734375,9.573014259338379,0.8612710237503052,-0.0776200145483017
1685710166329592800,9.8955927734375,9.705681800842285,0.9266613721847534,0.027571626007556915
1685710166349592800,9.9155927734375,9.924426078796387,1.0014371871948242,0.2553751468658447
1685710166369592800,9.9355927734375,9.908058166503906,1.0024809837341309,0.2528277039527893
1685710166389592800,9.9555927734375,9.618246078491211,0.9173336029052734,0.053141701966524124
1685710166409592800,9.9755927734375,9.6015625,0.89593905210495,-0.059682659804821014
1685710166429592800,9.9955927734375,9.783560752868652,0.8769769072532654,0.029142223298549652
1685710166449592800,10.0155927734375,9.839460372924805,0.8782506585121155,0.09579680114984512
1685710166469592800,10.0355927734375,9.796786308288574,0.9234148263931274,0.14847880601882935
1685710166489592800,10.0555927734375,9.795990943908691,0.9398965239524841,0.11493125557899475
1685710166509592800,10.0755927734375,9.654589653015137,0.9385270476341248,0.047951072454452515
1685710166529592800,10.0955927734375,9.626855850219727,0.9628234505653381,0.06350380927324295
1685710166549592800,10.1155927734375,9.719779014587402,0.9834997653961182,0.12359827011823654
1685710166569618000,10.135617919921875,9.817290306091309,0.9623637199401855,0.11810117959976196
1685710166589592800,10.1555927734375,9.756361961364746,0.9266518354415894,0.10517249256372452
1685710166609592800,10.1755927734375,9.735380172729492,0.8927499651908875,0.09849745780229568
1685710166629592800,10.1955927734375,9.720468521118164,0.845277726650238,0.05215528979897499
1685710166649592800,10.2155927734375,9.637370109558105,0.859470546245575,0.046150632202625275
1685710166669592800,10.2355927734375,9.619298934936523,0.8690760731697083,0.0456143319606781
1685710166689592800,10.2555927734375,9.521662712097168,0.8651878833770752,-0.010295066982507706
1685710166709592800,10.2755927734375,9.660297393798828,0.9126888513565063,0.09032844752073288
1685710166729592800,10.2955927734375,9.833207130432129,0.9814695119857788,0.22093693912029266
1685710166749592800,10.3155927734375,9.929041862487793,1.0463330745697021,0.30889031291007996
1685710166769592800,10.3355927734375,10.030671119689941,1.0424354076385498,0.3626258075237274
1685710166789592800,10.3555927734375,9.98877239227295,0.937416136264801,0.2893153429031372
1685710166809592800,10.3755927734375,9.68615436553955,0.8397518992424011,0.04400542750954628
1685710166829592800,10.3955927734375,9.429821968078613,0.7756926417350769,-0.012804190628230572
1685710166849592800,10.4155927734375,9.37511920928955,0.754163920879364,0.03978205472230911
1685710166869592800,10.4355927734375,9.66086196899414,0.8281160593032837,0.09777919948101044
1685710166889592800,10.4555927734375,9.862645149230957,0.9624690413475037,0.3140905499458313
1685710166909592800,10.4755927734375,9.653383255004883,1.102051019668579,0.3210241496562958
1685710166929608400,10.4956083984375,9.662567138671875,1.1326297521591187,0.37640678882598877
1685710166949592800,10.5155927734375,9.946892738342285,1.0509108304977417,0.5146671533584595
1685710166969592800,10.5355927734375,10.041549682617188,0.9759628176689148,0.4828147292137146
1685710166989592800,10.5555927734375,9.79628849029541,0.7819079756736755,0.24938005208969116
1685710167009592800,10.5755927734375,9.600394248962402,0.7298771739006042,0.06009446457028389
1685710167029594400,10.595594482421875,9.661992073059082,0.7515111565589905,0.030147787183523178
1685710167049592800,10.6155927734375,9.814187049865723,0.8021628856658936,0.12008357793092728
1685710167069592800,10.6355927734375,9.90420913696289,0.9341121912002563,0.26433902978897095
1685710167089592800,10.6555927734375,9.897753715515137,1.0006039142608643,0.32003772258758545
1685710167109592800,10.6755927734375,9.792275428771973,0.9593278765678406,0.27242183685302734
1685710167129592800,10.6955927734375,9.496869087219238,0.9592225551605225,0.14397770166397095
1685710167149592800,10.7155927734375,9.34160041809082,1.013637900352478,0.14014698565006256
1685710167169592800,10.7355927734375,9.512584686279297,0.9852235913276672,0.2030666023492813
1685710167189592800,10.7555927734375,9.730313301086426,0.9174867868423462,0.22245964407920837
1685710167209592800,10.7755927734375,9.772805213928223,0.8882009387016296,0.15239572525024414
1685710167229592800,10.7955927734375,9.824644088745117,0.8763352632522583,0.1048564612865448
1685710167249592800,10.8155927734375,9.818113327026367,0.871269166469574,0.04962701350450516
1685710167269592800,10.8355927734375,9.750749588012695,0.859805703163147,-0.020034680142998695
1685710167289592800,10.8555927734375,9.718303680419922,0.9175251722335815,0.009902418591082096
1685710167309592800,10.8755927734375,9.756314277648926,1.0000580549240112,0.11785218864679337
1685710167329592800,10.8955927734375,9.9401216506958,1.0269593000411987,0.18602946400642395
1685710167349592800,10.9155927734375,10.002725601196289,0.9827527403831482,0.19761739671230316
1685710167369592800,10.9355927734375,9.826895713806152,0.9518483877182007,0.11072704195976257
1685710167389592800,10.9555927734375,9.746450424194336,0.8868985176086426,0.01793735846877098
1685710167409592800,10.9755927734375,9.752215385437012,0.8153885006904602,-0.034562695771455765
1685710167429592800,10.9955927734375,9.692705154418945,0.8084261417388916,-0.0649307444691658
1685710167449592800,11.0155927734375,9.515534400939941,0.8754925727844238,-0.043258439749479294
1685710167469592800,11.0355927734375,9.541449546813965,0.9684258699417114,0.01912488415837288
1685710167489592800,11.0555927734375,9.61160945892334,1.0245555639266968,0.08884403854608536
1685710167509592800,11.0755927734375,9.735637664794922,1.0438528060913086,0.17307205498218536
1685710167529592800,11.0955927734375,9.801813125610352,1.024210810661316,0.14381490647792816
1685710167549592800,11.1155927734375,9.736222267150879,0.9731855392456055,0.013637373223900795
1685710167569621000,11.13562109375,9.690320014953613,0.8799744844436646,-0.06960423290729523
1685710167589592800,11.1555927734375,9.830850601196289,0.7942141890525818,-0.06962338089942932
1685710167609592800,11.1755927734375,9.967368125915527,0.8224082589149475,0.02004425600171089
1685710167629608400,11.1956083984375,9.83918285369873,0.9101318120956421,0.00020111293997615576
1685710167649592800,11.2155927734375,9.715727806091309,0.9499043226242065,-0.04061523824930191
1685710167669592800,11.2355927734375,9.7326021194458,1.015246868133545,0.10873506218194962
1685710167689592800,11.2555927734375,9.763879776000977,1.0704092979431152,0.22077412903308868
1685710167709592800,11.2755927734375,9.705595970153809,1.0022990703582764,0.2233790159225464
1685710167729592800,11.2955927734375,9.566051483154297,0.9304633736610413,0.07465120404958725
1685710167749594400,11.315594482421876,9.548861503601074,0.9019340872764587,-0.0390925258398056
1685710167769592800,11.3355927734375,9.640693664550781,0.9129665493965149,-0.08877699822187424
1685710167789592800,11.3555927734375,9.821494102478027,0.9584372639656067,0.0030933087691664696
1685710167809594400,11.375594482421874,10.04528522491455,0.98212069272995,0.1442171335220337
1685710167829592800,11.3955927734375,9.997247695922852,0.9719405770301819,0.13212162256240845
1685710167849592800,11.4155927734375,9.711294174194336,0.9367649555206299,-0.007603984791785479
1685710167869592800,11.4355927734375,9.550384521484375,0.9396188259124756,-0.10421480983495712
1685710167889592800,11.4555927734375,9.576194763183594,1.0266145467758179,0.001417367486283183
1685710167909592800,11.4755927734375,9.495078086853027,0.9068182110786438,-0.03282929211854935
1685710167929592800,11.4955927734375,9.664261817932129,0.8672373294830322,0.00039264908991754055
1685710167949592800,11.5155927734375,9.7137451171875,0.902872622013092,0.08249461650848389
1685710167969592800,11.5355927734375,9.664358139038086,0.9706668257713318,0.14153562486171722
1685710167989592800,11.5555927734375,9.66120719909668,0.991544246673584,0.1046074628829956
1685710168009592800,11.5755927734375,9.6808500289917,1.1025011539459229,0.12949758768081665
1685710168029592800,11.5955927734375,9.894613265991211,1.1202470064163208,0.3010086119174957
1685710168049592800,11.6155927734375,10.038485527038574,1.0001250505447388,0.296268105506897
1685710168069594400,11.635594482421874,9.953893661499023,0.8723896741867065,0.19636285305023193
1685710168089594400,11.655594482421876,9.763909339904785,0.8245152235031128,0.09776962548494339
1685710168109594400,11.675594482421875,9.53609561920166,0.7708946466445923,-0.0832894891500473
1685710168129592800,11.6955927734375,9.340518951416016,0.8676012754440308,-0.10598652064800262
1685710168149592800,11.7155927734375,9.584027290344238,1.0729566812515259,0.17980454862117767
1685710168169592800,11.7355927734375,9.970614433288574,1.1614272594451904,0.4452832043170929
1685710168189592800,11.7555927734375,10.123154640197754,1.1068203449249268,0.4751819968223572
1685710168209592800,11.7755927734375,10.020308494567871,0.9797934889793396,0.345196008682251
1685710168229592800,11.7955927734375,9.767892837524414,0.9016755223274231,0.18229450285434723
1685710168249592800,11.8155927734375,9.535530090332031,0.7589906454086304,-0.015198391862213612
1685710168269592800,11.8355927734375,9.420771598815918,0.7513483762741089,-0.010228029452264309
1685710168289592800,11.8555927734375,9.442635536193848,0.9066075682640076,0.06628108024597168
1685710168309592800,11.8755927734375,9.568552017211914,1.017966628074646,0.19686083495616913
1685710168329608400,11.8956083984375,9.814502716064453,1.102510690689087,0.41211870312690735
1685710168349592800,11.9155927734375,10.134415626525879,1.0949833393096924,0.46911028027534485
1685710168369592800,11.9355927734375,10.001663208007812,0.9621434807777405,0.28614541888237
1685710168389592800,11.9555927734375,9.80500316619873,0.9638960361480713,0.17890432476997375
1685710168409592800,11.9755927734375,9.615659713745117,0.8942534923553467,0.13964900374412537
1685710168429592800,11.9955927734375,9.50534439086914,0.8109257221221924,0.18835663795471191
1685710168449592800,12.0155927734375,9.671234130859375,0.7943195104598999,0.1298423409461975
1685710168469592800,12.0355927734375,9.564395904541016,0.9608410000801086,0.22919213771820068
1685710168489592800,12.0555927734375,9.566003799438477,1.0980000495910645,0.29284918308258057
1685710168509592800,12.0755927734375,9.78859806060791,1.1444858312606812,0.38950785994529724
1685710168529592800,12.0955927734375,10.013490676879883,1.1077301502227783,0.4131530225276947
1685710168549592800,12.1155927734375,10.019216537475586,1.0212610960006714,0.3337996006011963
1685710168569618000,12.135617919921875,9.811820983886719,0.8585032820701599,0.06699934601783752
1685710168589592800,12.1555927734375,9.599034309387207,0.8929893970489502,-0.041697416454553604
1685710168609592800,12.1755927734375,9.470734596252441,0.9380577802658081,-0.1311926692724228
1685710168629592800,12.1955927734375,9.593565940856934,0.9278872013092041,0.016931794583797455
1685710168649592800,12.2155927734375,9.717365264892578,0.9765182733535767,0.04639005288481712
1685710168669592800,12.2355927734375,9.732965469360352,0.9566367864608765,0.04306689649820328
1685710168689592800,12.2555927734375,9.763669967651367,1.0266432762145996,0.0642220675945282
1685710168709592800,12.2755927734375,9.796670913696289,1.041123390197754,0.05021119862794876
1685710168729592800,12.2955927734375,9.851593971252441,1.0672202110290527,0.08736921101808548
1685710168749592800,12.3155927734375,9.662681579589844,1.041975736618042,0.0822456106543541
1685710168769592800,12.3355927734375,9.567708969116211,0.9682630896568298,-0.038709454238414764
1685710168789592800,12.3555927734375,9.646707534790039,1.0451456308364868,-0.004807556979358196
1685710168809592800,12.3755927734375,9.788358688354492,1.048171877861023,0.07778282463550568
1685710168829592800,12.3955927734375,9.963126182556152,1.0688577890396118,0.17429788410663605
1685710168849594400,12.415594482421875,9.983237266540527,1.0152181386947632,0.14983871579170227
1685710168869592800,12.4355927734375,9.858423233032227,0.9572880268096924,0.049914319068193436
1685710168889592800,12.4555927734375,9.711714744567871,0.8929222822189331,-0.01819593273103237
1685710168909592800,12.4755927734375,9.53386402130127,0.8601695895195007,-0.09459970146417618
1685710168929592800,12.4955927734375,9.414470672607422,0.9303484559059143,-0.07386591285467148
1685710168949592800,12.5155927734375,9.487981796264648,1.0331459045410156,0.04656243696808815
1685710168969592800,12.5355927734375,9.65165901184082,1.0853394269943237,0.18806932866573334
1685710168989592800,12.5555927734375,9.869790077209473,1.1106414794921875,0.2100864052772522
1685710169009592800,12.5755927734375,9.773140907287598,1.1125184297561646,0.14746366441249847
1685710169029608400,12.5956083984375,9.765077590942383,1.049139142036438,0.0757046565413475
1685710169049592800,12.6155927734375,9.97557544708252,0.9166344404220581,0.06582139432430267
1685710169069592800,12.6355927734375,9.931024551391602,0.9078908562660217,0.09588298946619034
1685710169089592800,12.6555927734375,9.704876899719238,0.9182530045509338,-0.0709737166762352
1685710169109592800,12.6755927734375,9.466501235961914,0.9326756596565247,-0.1906454861164093
1685710169129592800,12.6955927734375,9.6570405960083,1.0383269786834717,0.05845683068037033
1685710169149592800,12.7155927734375,9.923754692077637,1.0867090225219727,0.3165230453014374
1685710169169592800,12.7355927734375,9.998971939086914,1.0431536436080933,0.35411199927330017
1685710169189592800,12.7555927734375,9.714242935180664,0.9405860304832458,0.1766441911458969
1685710169209592800,12.7755927734375,9.484161376953125,0.9205705523490906,0.032407913357019424
1685710169229592800,12.7955927734375,9.607979774475098,0.9643269777297974,0.040299203246831894
1685710169249592800,12.8155927734375,9.693499565124512,1.0176602602005005,0.11652100831270218
1685710169269592800,12.8355927734375,9.78615665435791,1.0572603940963745,0.29859524965286255
1685710169289592800,12.8555927734375,9.83993911743164,1.0435558557510376,0.31264445185661316
1685710169309592800,12.8755927734375,9.685580253601074,0.9907877445220947,0.10525868088006973
1685710169329592800,12.8955927734375,9.42614459991455,1.0013892650604248,-0.026949135586619377
1685710169349592800,12.9155927734375,9.559520721435547,1.046189546585083,0.10622594505548477
1685710169369592800,12.9355927734375,9.833340644836426,1.0065606832504272,0.20741447806358337
1685710169389592800,12.9555927734375,9.910386085510254,0.9913718700408936,0.2643677294254303
1685710169409592800,12.9755927734375,9.832277297973633,0.995011031627655,0.2677675187587738
1685710169429592800,12.9955927734375,9.697301864624023,0.9429706931114197,0.08388324826955795
1685710169449592800,13.0155927734375,9.70076847076416,0.9242863655090332,0.10982681810855865
1685710169469592800,13.0355927734375,9.703230857849121,0.945747971534729,0.17869363725185394
1685710169489592800,13.0555927734375,9.679891586303711,0.9944460391998291,0.2096075713634491
1685710169509592800,13.0755927734375,9.636911392211914,1.0431536436080933,0.2561412751674652
1685710169529592800,13.0955927734375,9.684870719909668,1.0707156658172607,0.2548196613788605
1685710169549592800,13.1155927734375,9.797858238220215,1.0540424585342407,0.28519728779792786
1685710169569622500,13.13562255859375,9.821858406066895,1.0371490716934204,0.23230460286140442
1685710169589594400,13.155594482421876,9.743443489074707,1.0287309885025024,0.257137268781662
1685710169609592800,13.1755927734375,9.777230262756348,0.9680523872375488,0.24754130840301514
1685710169629592800,13.1955927734375,9.750616073608398,0.9046730399131775,0.2530096471309662
1685710169649592800,13.2155927734375,9.554808616638184,0.8995111584663391,0.07383718341588974
1685710169669592800,13.2355927734375,9.516712188720703,0.9603909254074097,0.06660669296979904
1685710169689592800,13.2555927734375,9.417506217956543,1.0930296182632446,0.18578046560287476
1685710169709592800,13.2755927734375,9.658333778381348,1.1267783641815186,0.3362991213798523
1685710169729608400,13.2956083984375,9.739612579345703,1.1070789098739624,0.33095529675483704
1685710169749592800,13.3155927734375,9.807636260986328,1.0860865116119385,0.2763291895389557
1685710169769592800,13.3355927734375,9.948779106140137,0.916404664516449,0.23254401981830597
1685710169789592800,13.3555927734375,9.988686561584473,0.8398668169975281,0.16010504961013794
1685710169809592800,13.3755927734375,9.875765800476074,0.8807501792907715,0.13224612176418304
1685710169829592800,13.3955927734375,9.711064338684082,0.9913718700408936,0.06688442081212997
1685710169849592800,13.4155927734375,9.685388565063477,1.0809725522994995,0.23724623024463654
1685710169869594400,13.435594482421875,9.810787200927734,1.0859332084655762,0.35673606395721436
1685710169889594400,13.455594482421875,9.832392692565918,1.0586585998535156,0.39962100982666016
1685710169909594400,13.475594482421876,9.633405685424805,0.9950493574142456,0.2621555030345917
1685710169929592800,13.4955927734375,9.459089279174805,0.9398295283317566,0.08721598237752914
1685710169949592800,13.5155927734375,9.590645790100098,0.9334609508514404,0.07792647182941437
1685710169969592800,13.5355927734375,9.704456329345703,0.9775621294975281,0.13288776576519012
1685710169989592800,13.5555927734375,9.751287460327148,1.0301196575164795,0.15569014847278595
1685710170009592800,13.5755927734375,9.797599792480469,1.0501735210418701,0.2538045346736908
1685710170029592800,13.5955927734375,9.874204635620117,1.0449254512786865,0.24824997782707214
1685710170049594400,13.615594482421875,9.65450382232666,1.051657795906067,0.09710881859064102
1685710170069592800,13.6355927734375,9.566081047058105,1.0276776552200317,0.0360279455780983
1685710170089592800,13.6555927734375,9.637992858886719,1.0374267101287842,0.13312719762325287
1685710170109592800,13.6755927734375,9.842476844787598,0.956368625164032,0.14070244133472443
1685710170129592800,13.6955927734375,9.821245193481445,0.9143838882446289,0.15398547053337097
1685710170149592800,13.7155927734375,9.79099178314209,0.9000378847122192,0.07250600308179855
1685710170169592800,13.7355927734375,9.767624855041504,0.9186072945594788,0.04971320182085037
1685710170189592800,13.7555927734375,9.635570526123047,0.9962656497955322,0.038355108350515366
1685710170209592800,13.7755927734375,9.59022331237793,1.0618093013763428,0.11420342326164246
1685710170229592800,13.7955927734375,9.768094062805176,1.1157171726226807,0.2321130633354187
1685710170249592800,13.8155927734375,9.725984573364258,1.0954430103302002,0.17323486506938934
1685710170269592800,13.8355927734375,9.551552772521973,1.0413819551467896,0.041764453053474426
1685710170289592800,13.8555927734375,9.56701946258545,0.9931148886680603,-0.01922065205872059
1685710170309592800,13.8755927734375,9.697235107421875,0.9478548765182495,-0.07058106362819672
1685710170329592800,13.8955927734375,9.822739601135254,0.9509577751159668,0.035913024097681046
1685710170349592800,13.9155927734375,9.900885581970215,1.0031609535217285,0.13768574595451355
1685710170369592800,13.9355927734375,9.94526481628418,1.0026150941848755,0.12754391133785248
1685710170389592800,13.9555927734375,9.90356731414795,0.9767385125160217,0.10885956883430481
1685710170409592800,13.9755927734375,9.865787506103516,1.0056796073913574,0.14149731397628784
1685710170429610000,13.99560986328125,9.74765682220459,1.0339982509613037,0.0998765155673027
1685710170449592800,14.0155927734375,9.529937744140625,1.01405930519104,0.01388636976480484
1685710170469592800,14.0355927734375,9.31239128112793,0.9808182120323181,-0.06299623847007751
1685710170489592800,14.0555927734375,9.306022644042969,0.9223805665969849,-0.0828298032283783
1685710170509592800,14.0755927734375,9.526691436767578,0.9919273853302002,0.04151545837521553
1685710170529592800,14.0955927734375,9.651410102844238,1.058409571647644,0.06581181287765503
1685710170549592800,14.1155927734375,9.746374130249023,1.086211085319519,0.031009700149297714
1685710170569618000,14.135617919921875,9.982278823852539,1.1695388555526733,0.1928960382938385
1685710170589592800,14.1555927734375,10.20429801940918,1.1786366701126099,0.3903219401836395
1685710170609592800,14.1755927734375,10.203532218933105,1.0294684171676636,0.3321811258792877
1685710170629592800,14.1955927734375,9.92793083190918,0.8355093598365784,0.0472806952893734
1685710170649592800,14.2155927734375,9.442117691040039,0.727837324142456,-0.2168380618095398
1685710170669592800,14.2355927734375,9.303475379943848,0.77958083152771,-0.27371472120285034
1685710170689592800,14.2555927734375,9.493545532226562,0.9260101914405823,-0.04229117929935455
1685710170709592800,14.2755927734375,9.753116607666016,1.1144146919250488,0.23649923503398895
1685710170729592800,14.2955927734375,9.85535717010498,1.2075395584106445,0.3704308867454529
1685710170749592800,14.3155927734375,9.84887409210205,1.1802743673324585,0.3660829961299896
1685710170769592800,14.3355927734375,9.618159294128418,1.1079695224761963,0.1753321886062622
1685710170789592800,14.3555927734375,9.554616928100586,1.0457873344421387,0.08877699822187424
1685710170809592800,14.3755927734375,9.653047561645508,0.9511301517486572,0.07765832543373108
1685710170829592800,14.3955927734375,9.65428352355957,0.8887947201728821,0.024085668846964836
1685710170849592800,14.4155927734375,9.690292358398438,0.8865154385566711,0.02848142385482788
1685710170869592800,14.4355927734375,9.820037841796875,0.9101892709732056,0.08809704333543777
1685710170889592800,14.4555927734375,9.828763008117676,0.9160311222076416,0.038163572549819946
1685710170909592800,14.4755927734375,9.871628761291504,0.9892745614051819,0.11105264723300934
1685710170929592800,14.4955927734375,9.77299690246582,1.0605547428131104,0.1817869395017624
1685710170949592800,14.5155927734375,9.654541969299316,1.0391888618469238,0.19581696391105652
1685710170969592800,14.5355927734375,9.593307495117188,1.0740867853164673,0.2121071219444275
1685710170989592800,14.5555927734375,9.586507797241211,1.0551629066467285,0.1774582415819168
1685710171009592800,14.5755927734375,9.714876174926758,1.0390453338623047,0.16048812866210938
1685710171029592800,14.5955927734375,9.825363159179688,0.9795349836349487,0.13086706399917603
1685710171049592800,14.6155927734375,9.803834915161133,0.9494733214378357,0.08953356742858887
1685710171069592800,14.6355927734375,9.699265480041504,0.936755359172821,0.03338475152850151
1685710171089592800,14.6555927734375,9.763009071350098,0.9450871348381042,0.1043967753648758
1685710171109592800,14.6755927734375,9.780850410461426,0.9843616485595703,0.13108733296394348
1685710171129608400,14.6956083984375,9.689468383789062,1.038068413734436,0.18949627876281738
1685710171149594400,14.715594482421874,9.6659574508667,1.0438528060913086,0.2035645991563797
1685710171169594400,14.735594482421876,9.727727890014648,1.012067437171936,0.19746416807174683
1685710171189594400,14.755594482421875,9.670439720153809,0.9596630930900574,0.1604306697845459
1685710171209594400,14.775594482421875,9.581279754638672,0.885892927646637,0.11270944029092789
1685710171229592800,14.7955927734375,9.60303783416748,0.9609942436218262,0.13457328081130981
1685710171249592800,14.8155927734375,9.595846176147461,1.043172836303711,0.10782526433467865
1685710171269592800,14.8355927734375,9.69102954864502,1.068091630935669,0.17734330892562866
1685710171289592800,14.8555927734375,9.892304420471191,1.0947344303131104,0.34027352929115295
1685710171309592800,14.8755927734375,10.023804664611816,1.0472525358200073,0.38973772525787354
1685710171329592800,14.8955927734375,9.847705841064453,0.9244587421417236,0.2522626519203186
1685710171349592800,14.9155927734375,9.636662483215332,0.8488019704818726,0.07578127086162567
1685710171369592800,14.9355927734375,9.534754753112793,0.874190092086792,-0.0050661307759583
1685710171389592800,14.9555927734375,9.581681251525879,0.9788358807563782,0.05568913370370865
1685710171409592800,14.9755927734375,9.674787521362305,1.039926290512085,0.18165287375450134
1685710171429592800,14.9955927734375,9.878533363342285,1.1064276695251465,0.2809739410877228
1685710171449592800,15.0155927734375,9.965846061706543,1.0725736618041992,0.3218860328197479
1685710171469592800,15.0355927734375,9.76974105834961,1.0038983821868896,0.18157626688480377
1685710171489592800,15.0555927734375,9.516702651977539,0.9322734475135803,-0.010946289636194706
1685710171509592800,15.0755927734375,9.54578685760498,0.9606590867042542,-0.032283417880535126
1685710171529592800,15.0955927734375,9.690110206604004,0.9149106740951538,0.08640195429325104
1685710171549592800,15.1155927734375,9.797696113586426,0.9322447180747986,0.19626706838607788
1685710171569621000,15.13562109375,9.917530059814453,0.9935840964317322,0.2660819888114929
1685710171589592800,15.1555927734375,9.886980056762695,1.041314959526062,0.24050234258174896
1685710171609592800,15.1755927734375,9.709684371948242,1.0215579271316528,0.1452801674604416
1685710171629592800,15.1955927734375,9.6015625,1.002251148223877,0.09776962548494339
1685710171649592800,15.2155927734375,9.546735763549805,0.975292444229126,0.08033982664346695
1685710171669594400,15.235594482421876,9.634957313537598,0.9847255945205688,0.13147039711475372
1685710171689592800,15.2555927734375,9.731012344360352,1.0201406478881836,0.17708472907543182
1685710171709592800,15.2755927734375,9.774375915527344,1.0072311162948608,0.15268303453922272
1685710171729592800,15.2955927734375,9.748126029968262,1.002490520477295,0.14839261770248413
1685710171749594400,15.315594482421876,9.726702690124512,0.9944364428520203,0.11259452253580093
1685710171769592800,15.3355927734375,9.743950843811035,0.9201779365539551,0.05919424444437027
1685710171789592800,15.3555927734375,9.650605201721191,0.9260867834091187,-0.002269703196361661
1685710171809592800,15.3755927734375,9.604291915893555,0.962842583656311,0.020369866862893105
1685710171829608400,15.3956083984375,9.67849349975586,0.9753881692886353,0.03230256959795952
1685710171849592800,15.4155927734375,9.756975173950195,1.0104775428771973,0.13752295076847076
1685710171869592800,15.4355927734375,9.745272636413574,1.0441688299179077,0.13997460901737213
1685710171889592800,15.4555927734375,9.802665710449219,1.0403859615325928,0.16671305894851685
1685710171909592800,15.4755927734375,9.841940879821777,0.9594140648841858,0.11219228804111481
1685710171929592800,15.4955927734375,9.770468711853027,0.9020106792449951,0.07592492550611496
1685710171949592800,15.5155927734375,9.715689659118652,0.9176496267318726,0.07062894850969315
1685710171969592800,15.5355927734375,9.602903366088867,0.9813545346260071,0.007881712168455124
1685710171989592800,15.5555927734375,9.578080177307129,1.0178229808807373,0.011176133528351784
1685710172009592800,15.5755927734375,9.646363258361816,1.0612250566482544,0.16191506385803223
1685710172029592800,15.5955927734375,9.805280685424805,1.0969178676605225,0.2830233871936798
1685710172049592800,15.6155927734375,9.84833812713623,0.9688472151756287,0.23791660368442535
1685710172069592800,15.6355927734375,9.662882804870605,0.8158864974975586,0.06750690937042236
1685710172089592800,15.6555927734375,9.528759956359863,0.8730217218399048,-0.07081091403961182
1685710172109592800,15.6755927734375,9.595979690551758,0.9459682703018188,0.026154259219765663
1685710172129592800,15.6955927734375,9.797916412353516,0.9927126169204712,0.08727343380451202
1685710172149592800,15.7155927734375,9.93407917022705,1.0258100032806396,0.2523009777069092
1685710172169592800,15.7355927734375,9.963153839111328,1.0581318140029907,0.3203250467777252
1685710172189592800,15.7555927734375,9.684450149536133,1.0346015691757202,0.1145673394203186
1685710172209592800,15.7755927734375,9.531632423400879,0.9980661273002625,-0.05272989720106125
1685710172229592800,15.7955927734375,9.507040023803711,0.9734824299812317,0.03187161311507225
1685710172249592800,15.8155927734375,9.749208450317383,0.9611378908157349,0.1762036681175232
1685710172269592800,15.8355927734375,9.779701232910156,0.9363723397254944,0.15198391675949097
1685710172289592800,15.8555927734375,9.739439964294434,0.9235393404960632,0.09619902819395065
1685710172309592800,15.8755927734375,9.674202919006348,0.9846681356430054,0.13891157507896423
1685710172329592800,15.8955927734375,9.70666790008545,1.0129388570785522,0.09809523075819016
1685710172349592800,15.9155927734375,9.822882652282715,1.056044101715088,0.22361843287944794
1685710172369592800,15.9355927734375,9.729883193969727,1.0840083360671997,0.27038198709487915
1685710172389592800,15.9555927734375,9.689449310302734,1.043603777885437,0.2136106789112091
1685710172409592800,15.9755927734375,9.62494945526123,0.9765086770057678,0.14493539929389954
1685710172429592800,15.9955927734375,9.580991744995117,0.9661370515823364,0.06923073530197144
1685710172449592800,16.0155927734375,9.604684829711914,0.9915059804916382,0.12610739469528198
1685710172469592800,16.0355927734375,9.712969779968262,0.9760681986808777,0.17172172665596008
1685710172489592800,16.0555927734375,9.816341400146484,0.9934787750244141,0.21830330789089203
1685710172509592800,16.0755927734375,9.99149227142334,0.9429706931114197,0.23653754591941833
1685710172529608400,16.0956083984375,9.844679832458496,0.9306166172027588,0.18466956913471222
1685710172549592800,16.1155927734375,9.598824501037598,0.9590405821800232,0.07695922255516052
1685710172569618000,16.135617919921874,9.522706985473633,0.981249213218689,0.12285128235816956
1685710172589592800,16.1555927734375,9.602261543273926,1.0163003206253052,0.11145488172769547
1685710172609592800,16.1755927734375,9.569538116455078,1.0289896726608276,0.16285361349582672
1685710172629592800,16.1955927734375,9.653277397155762,0.9552003145217896,0.18832790851593018
1685710172649592800,16.2155927734375,9.834651947021484,0.9479219317436218,0.20380403101444244
1685710172669592800,16.2355927734375,9.749265670776367,0.9632447957992554,0.23785914480686188
1685710172689592800,16.2555927734375,9.86143970489502,0.9600653052330017,0.10491392016410828
1685710172709592800,16.2755927734375,9.73987102508545,1.0540138483047485,0.16381128132343292
1685710172729592800,16.2955927734375,9.824749946594238,1.0350037813186646,0.20690689980983734
1685710172749592800,16.3155927734375,9.72744083404541,1.031029462814331,0.22547633945941925
1685710172769592800,16.3355927734375,9.6226224899292,1.0467641353607178,0.18511967360973358
1685710172789594400,16.355594482421875,9.610910415649414,0.9634554982185364,0.1468890756368637
1685710172809592800,16.3755927734375,9.658946990966797,0.9615592360496521,0.09070193767547607
1685710172829592800,16.3955927734375,9.796987533569336,0.9391878843307495,0.07307104021310806
1685710172849592800,16.4155927734375,9.909590721130371,0.9453553557395935,0.12424948811531067
1685710172869592800,16.4355927734375,9.662874221801758,0.9739516377449036,0.16655024886131287
1685710172889592800,16.4555927734375,9.696402549743652,1.0411999225616455,0.05671384930610657
1685710172909592800,16.4755927734375,9.520734786987305,1.0868334770202637,0.0549708716571331
1685710172929592800,16.4955927734375,9.485339164733887,1.1845840215682983,0.06575435400009155
1685710172949592800,16.5155927734375,9.715163230895996,0.934916615486145,0.049847278743982315
1685710172969592800,16.5355927734375,9.89864444732666,0.8410351276397705,0.05027823522686958
1685710172989592800,16.5555927734375,9.81983757019043,0.8538681268692017,0.04493437707424164
1685710173009592800,16.5755927734375,9.688807487487793,0.882732629776001,-0.003303998149931431
1685710173029592800,16.5955927734375,9.751343727111816,0.9566942453384399,-0.020647596567869186
1685710173049594400,16.615594482421876,9.73130989074707,1.0435175895690918,0.11209652572870255
1685710173069592800,16.6355927734375,9.73015022277832,1.0824377536773682,0.20974163711071014
1685710173089592800,16.6555927734375,9.752167701721191,1.077907919883728,0.18040788173675537
1685710173109592800,16.6755927734375,9.717412948608398,1.058591604232788,0.14980998635292053
1685710173129592800,16.6955927734375,9.65494441986084,0.9888818860054016,0.05813121795654297
1685710173149592800,16.7155927734375,9.74045467376709,0.9158492088317871,0.042856208980083466
1685710173169592800,16.7355927734375,9.739717483520508,0.8393208980560303,-0.008916007354855537
1685710173189592800,16.7555927734375,9.631768226623535,0.9121333360671997,-0.026671407744288445
1685710173209592800,16.7755927734375,9.720094680786133,0.9988322257995605,0.12741941213607788
1685710173229608400,16.7956083984375,9.748969078063965,1.031153917312622,0.16757497191429138
1685710173249592800,16.8155927734375,9.714559555053711,1.075743556022644,0.16139791905879974
1685710173269592800,16.8355927734375,9.663888931274414,1.0843818187713623,0.1324855536222458
1685710173289592800,16.8555927734375,9.660124778747559,0.9954707622528076,0.015476119704544544
1685710173309592800,16.8755927734375,9.759455680847168,0.9619040489196777,0.031862035393714905
1685710173329592800,16.8955927734375,9.762491226196289,0.9030162692070007,0.056273315101861954
1685710173349592800,16.9155927734375,9.709856986999512,0.8829145431518555,-0.01589749939739704
1685710173369592800,16.9355927734375,9.780132293701172,0.9290172457695007,0.04983770474791527
1685710173389592800,16.9555927734375,9.743586540222168,1.0004507303237915,0.07035122066736221
1685710173409592800,16.9755927734375,9.621932983398438,1.0586105585098267,0.0025857379660010338
1685710173429592800,16.9955927734375,9.670975685119629,1.0966497659683228,0.0686178207397461
1685710173449592800,17.0155927734375,9.887545585632324,1.0671724081039429,0.22604136168956757
1685710173469592800,17.0355927734375,9.961995124816895,0.9872442483901978,0.22483468055725098
1685710173489592800,17.0555927734375,9.722719192504883,0.9325607419013977,0.1433839499950409
1685710173509592800,17.0755927734375,9.577831268310547,0.9202641248703003,-0.010170568712055683
1685710173529592800,17.0955927734375,9.622028350830078,0.9047113656997681,-0.0752449706196785
1685710173549592800,17.1155927734375,9.675179481506348,0.9291322231292725,0.01649126037955284
1685710173569621000,17.13562109375,9.58035945892334,1.0249769687652588,0.10395623743534088
1685710173589592800,17.1555927734375,9.588777542114258,1.061780571937561,0.1327153891324997
1685710173609592800,17.1755927734375,9.553027153015137,1.0475207567214966,0.06486371904611588
1685710173629592800,17.1955927734375,9.586363792419434,1.0538318157196045,0.023060951381921768
1685710173649592800,17.2155927734375,9.774003028869629,1.0690972805023193,0.1986900120973587
1685710173669594400,17.235594482421874,10.074494361877441,0.9638097882270813,0.24913105368614197
1685710173689594400,17.255594482421873,9.99317741394043,0.8571146130561829,0.18934305012226105
1685710173709594400,17.275594482421877,9.786050796508789,0.8972606062889099,0.04886086657643318
1685710173729594400,17.295594482421876,9.560210227966309,0.8857396841049194,-0.04219541326165199
1685710173749594400,17.315594482421876,9.649005889892578,0.9415533542633057,0.01851196587085724
1685710173769592800,17.3355927734375,9.578032493591309,0.9868133664131165,0.11502702534198761
1685710173789592800,17.3555927734375,9.635196685791016,1.0843243598937988,0.22410686314105988
1685710173809592800,17.3755927734375,9.688634872436523,1.101313591003418,0.27375301718711853
1685710173829592800,17.3955927734375,9.618485450744629,1.0495893955230713,0.2296518236398697
1685710173849592800,17.4155927734375,9.586114883422852,1.0382790565490723,0.1378006786108017
1685710173869592800,17.4355927734375,9.699188232421875,0.9570869207382202,0.07807012647390366
1685710173889592800,17.4555927734375,9.788683891296387,0.9033993482589722,0.04296155646443367
1685710173909592800,17.4755927734375,9.82762336730957,0.925732433795929,0.1019163727760315
1685710173929610000,17.49560986328125,9.772316932678223,0.9643748998641968,0.11728715151548386
1685710173949592800,17.5155927734375,9.658842086791992,1.0206290483474731,0.11254663020372391
1685710173969592800,17.5355927734375,9.647330284118652,1.0433930158615112,0.1189631000161171
1685710173989592800,17.5555927734375,9.731721878051758,1.0203609466552734,0.1454716920852661
1685710174009592800,17.5755927734375,9.762146949768066,0.9311529397964478,0.07068640738725662
1685710174029592800,17.5955927734375,9.709235191345215,0.9475483894348145,0.05272989720106125
1685710174049594400,17.615594482421876,9.664913177490234,0.9802340865135193,0.09470503777265549
1685710174069592800,17.6355927734375,9.780858993530273,0.9540414810180664,0.12319604307413101
1685710174089592800,17.6555927734375,9.847379684448242,0.9659550189971924,0.09269391745328903
1685710174109592800,17.6755927734375,9.806018829345703,0.9917070865631104,0.0612628310918808
1685710174129592800,17.6955927734375,9.645635604858398,1.0040323734283447,0.017994819208979607
1685710174149592800,17.7155927734375,9.659090995788574,0.9918315410614014,0.11243171244859695
1685710174169592800,17.7355927734375,9.804974555969238,0.9580445885658264,0.22980505228042603
1685710174189592800,17.7555927734375,9.675745010375977,0.9345526695251465,0.21192514896392822
1685710174209592800,17.7755927734375,9.614482879638672,0.8850693106651306,0.023396139964461327
1685710174229592800,17.7955927734375,9.538508415222168,0.9672766327857971,0.08893980085849762
1685710174249592800,17.8155927734375,9.552701950073242,0.9816322922706604,0.029841329902410507
1685710174269592800,17.8355927734375,9.580982208251953,1.0510737895965576,0.11080365628004074
1685710174289592800,17.8555927734375,9.737218856811523,1.1071555614471436,0.21925142407417297
1685710174309592800,17.8755927734375,10.011392593383789,1.061349630355835,0.26767176389694214
1685710174329592800,17.8955927734375,9.973823547363281,1.0093475580215454,0.19530940055847168
1685710174349592800,17.9155927734375,9.772422790527344,0.9772365093231201,0.04860229417681694
1685710174369592800,17.9355927734375,9.724653244018555,0.9301186800003052,0.015677232295274734
1685710174389592800,17.9555927734375,9.729470252990723,0.8699284195899963,0.016606181859970093
1685710174409592800,17.9755927734375,9.772939682006836,0.8377790451049805,0.08848969638347626
1685710174429592800,17.9955927734375,9.729948997497559,0.8898481726646423,0.10367850959300995
1685710174449592800,18.0155927734375,9.62027645111084,0.9492243528366089,0.023798365145921707
1685710174469592800,18.0355927734375,9.560086250305176,0.9671233892440796,0.05030696466565132
1685710174489592800,18.0555927734375,9.662413597106934,1.0804170370101929,0.16279613971710205
1685710174509592800,18.0755927734375,9.718753814697266,1.1017446517944336,0.2566392719745636
1685710174529592800,18.0955927734375,9.569988250732422,1.0821887254714966,0.19267578423023224
1685710174549592800,18.1155927734375,9.529391288757324,1.0095199346542358,0.12953588366508484
1685710174569618000,18.135617919921874,9.62712287902832,0.9829538464546204,0.08380663394927979
1685710174589592800,18.1555927734375,9.664952278137207,0.9516568779945374,0.04765418916940689
1685710174609592800,18.1755927734375,9.830228805541992,0.9102084636688232,0.05811206251382828
1685710174629608400,18.1956083984375,9.962885856628418,0.9391399621963501,0.10771992802619934
1685710174649592800,18.2155927734375,9.918325424194336,0.9071822166442871,0.08115386217832565
1685710174669592800,18.2355927734375,9.6434326171875,0.9667211771011353,-0.006971915252506733
1685710174689592800,18.2555927734375,9.747675895690918,0.9829442501068115,0.07108864188194275
1685710174709592800,18.2755927734375,9.921466827392578,0.9720075726509094,0.2078167051076889
1685710174729592800,18.2955927734375,9.703632354736328,0.873529314994812,0.04848737269639969
1685710174749594400,18.315594482421876,9.443410873413086,0.9742964506149292,-0.09708009660243988
1685710174769592800,18.3355927734375,9.601381301879883,1.073876142501831,0.1118379533290863
1685710174789592800,18.3555927734375,9.741642951965332,0.9319190382957458,0.1980004757642746
1685710174809592800,18.3755927734375,9.552165985107422,0.9905482530593872,-0.031239543110132217
1685710174829592800,18.3955927734375,9.718591690063477,1.1576539278030396,0.18482279777526855
1685710174849592800,18.4155927734375,10.046146392822266,0.9402030110359192,0.26848578453063965
1685710174869594400,18.435594482421877,9.684660911560059,0.9542809128761292,-0.11268071085214615
1685710174889594400,18.455594482421876,9.380444526672363,1.0095869302749634,-0.11432792246341705
1685710174909594400,18.475594482421876,9.662299156188965,1.0960272550582886,0.20991402864456177
1685710174929592800,18.4955927734375,9.942056655883789,1.009290099143982,0.20762516558170319
1685710174949592800,18.5155927734375,9.988839149475098,0.8440518975257874,0.28953561186790466
1685710174969592800,18.5355927734375,9.912445068359375,0.9041463136672974,0.18241901695728302
1685710174989592800,18.5555927734375,9.729939460754395,0.978548526763916,0.06924030929803848
1685710175009592800,18.5755927734375,9.704245567321777,1.0005369186401367,0.06602250784635544
1685710175029592800,18.5955927734375,9.74748420715332,0.8955655097961426,0.07087794691324234
1685710175049594400,18.615594482421876,9.562154769897461,0.9245257377624512,0.048382025212049484
1685710175069592800,18.6355927734375,9.375244140625,1.1158416271209717,0.06017107889056206
1685710175089592800,18.6555927734375,9.495614051818848,1.1183316707611084,0.08955271542072296
1685710175109592800,18.6755927734375,9.760384559631348,0.938488781452179,0.11959516257047653
1685710175129592800,18.6955927734375,9.791691780090332,0.9146425127983093,0.08225519210100174
1685710175149592800,18.7155927734375,9.734431266784668,1.0279265642166138,0.06681738048791885
1685710175169592800,18.7355927734375,9.81050968170166,0.9950589537620544,0.06791871786117554
1685710175189592800,18.7555927734375,9.873332977294922,0.9182050824165344,0.015294160693883896
1685710175209592800,18.7755927734375,9.733503341674805,0.9416203498840332,-0.024277204647660255
1685710175229592800,18.7955927734375,9.662031173706055,1.028003215789795,0.001455674646422267
1685710175249592800,18.8155927734375,9.676012992858887,1.0420619249343872,0.09993397444486618
1685710175269592800,18.8355927734375,9.735532760620117,1.026039958000183,0.0956244096159935
1685710175289592800,18.8555927734375,9.6751127243042,1.0548757314682007,0.0907689779996872
1685710175309592800,18.8755927734375,9.627344131469727,1.1329265832901,0.07861600816249847
1685710175329610000,18.89560986328125,9.808612823486328,1.092464566230774,0.1636197566986084
1685710175349592800,18.9155927734375,9.943397521972656,0.9506417512893677,0.09730993956327438
1685710175369592800,18.9355927734375,9.759140014648438,0.9218538403511047,0.018492812290787697
1685710175389592800,18.9555927734375,9.539485931396484,0.9957293272018433,0.07377014309167862
1685710175409592800,18.9755927734375,9.58641242980957,1.0663104057312012,0.1673068106174469
1685710175429592800,18.9955927734375,9.69210147857666,1.0714722871780396,0.1465538740158081
1685710175449594400,19.015594482421875,9.727018356323242,1.068886637687683,0.1530756801366806
1685710175469594400,19.035594482421875,9.82343864440918,1.0242490768432617,0.171080082654953
1685710175489594400,19.055594482421874,9.870172500610352,0.93654465675354,0.15055698156356812
1685710175509594400,19.075594482421874,9.67160701751709,0.8909399509429932,-0.039494749158620834
1685710175529592800,19.0955927734375,9.428950309753418,0.9713659882545471,-0.030013712123036385
1685710175549592800,19.1155927734375,9.570600509643555,1.015869379043579,0.04678269848227501
1685710175569618000,19.135617919921874,9.758373260498047,0.9675160646438599,0.12031342089176178
1685710175589592800,19.1555927734375,9.627324104309082,1.0544830560684204,0.16700993478298187
1685710175609592800,19.1755927734375,9.603066444396973,1.0726981163024902,0.11178048700094223
1685710175629592800,19.1955927734375,9.75179386138916,1.074422001838684,0.08373001962900162
1685710175649592800,19.2155927734375,9.770172119140625,1.1171249151229858,0.19339405000209808
1685710175669592800,19.2355927734375,9.771866798400879,1.1443804502487183,0.2785222828388214
1685710175689592800,19.2555927734375,9.80151653289795,1.0490913391113281,0.11264239996671677
1685710175709592800,19.2755927734375,9.466032028198242,0.994666337966919,0.03916914016008377
1685710175729592800,19.2955927734375,9.211576461791992,1.0788177251815796,-0.05450160428881645
1685710175749592800,19.3155927734375,9.55245304107666,1.1729097366333008,0.020551826804876328
1685710175769592800,19.3355927734375,10.058279991149902,1.130752682685852,0.2051926553249359
1685710175789592800,19.3555927734375,10.29609203338623,1.1259164810180664,0.3410971462726593
1685710175809592800,19.3755927734375,10.18444538116455,1.1375235319137573,0.36274072527885437
1685710175829592800,19.3955927734375,9.809704780578613,1.1038706302642822,0.12487198412418365
1685710175849592800,19.4155927734375,9.29701042175293,1.1034300327301025,-0.14766478538513184
1685710175869592800,19.4355927734375,9.123115539550781,1.1816917657852173,-0.10913728922605515
1685710175889592800,19.4555927734375,9.386870384216309,1.1963059902191162,0.021557392552495003
1685710175909592800,19.4755927734375,9.797820091247559,1.1747677326202393,0.20765389502048492
1685710175929592800,19.4955927734375,10.058184623718262,1.1593682765960693,0.2904454171657562
1685710175949594400,19.515594482421875,9.958643913269043,1.1414787769317627,0.21863850951194763
1685710175969594400,19.535594482421875,9.77975845336914,1.1277360916137695,0.0829543024301529
1685710175989594400,19.555594482421874,9.649465560913086,1.180322289466858,0.10509587824344635
1685710176009592800,19.5755927734375,9.465160369873047,1.2380609512329102,0.051456183195114136
1685710176029610000,19.59560986328125,9.423941612243652,1.2416138648986816,0.10445423424243927
1685710176049594400,19.615594482421876,9.681078910827637,1.211150050163269,0.22711396217346191
1685710176069592800,19.6355927734375,9.773112297058105,1.2277178764343262,0.184832364320755
1685710176089592800,19.6555927734375,9.670113563537598,1.1957504749298096,0.07679641991853714
1685710176109592800,19.6755927734375,9.65520191192627,1.132131814956665,0.022342689335346222
1685710176129592800,19.6955927734375,9.705327033996582,1.1464203596115112,0.08848969638347626
1685710176149592800,19.7155927734375,9.725582122802734,1.1409903764724731,0.16206829249858856
1685710176169592800,19.7355927734375,9.786749839782715,1.1679202318191528,0.21746055781841278
1685710176189592800,19.7555927734375,9.84223747253418,1.2009028196334839,0.22093693912029266
1685710176209592800,19.7755927734375,9.664377212524414,1.186355710029602,0.1352149397134781
1685710176229592800,19.7955927734375,9.634239196777344,1.2515546083450317,0.12151052057743073
1685710176249592800,19.8155927734375,9.639505386352539,1.2816354036331177,0.14009910821914673
1685710176269592800,19.8355927734375,9.678560256958008,1.255021333694458,0.14078862965106964
1685710176289592800,19.8555927734375,9.635138511657715,1.1981256008148193,0.05986462160944939
1685710176309592800,19.8755927734375,9.649945259094238,1.1827069520950317,0.062479086220264435
1685710176329592800,19.8955927734375,9.686116218566895,1.1370254755020142,0.13235147297382355
1685710176349592800,19.9155927734375,9.64796257019043,1.1290576457977295,0.10470323264598846
1685710176369592800,19.9355927734375,9.70738697052002,1.2470917701721191,0.13539689779281616
1685710176389592800,19.9555927734375,9.99748706817627,1.1989492177963257,0.29646921157836914
1685710176409592800,19.9755927734375,9.91566276550293,1.1806670427322388,0.21576546132564545
1685710176429592800,19.9955927734375,9.688241958618164,1.178713321685791,0.13326126337051392
1685710176449592800,20.0155927734375,9.584410667419434,1.2846328020095825,0.24462996423244476
1685710176469592800,20.0355927734375,9.57628059387207,1.2269039154052734,0.25233927369117737
1685710176489592800,20.0555927734375,9.54204273223877,1.1804946660995483,0.16465403139591217
1685710176509592800,20.0755927734375,9.48801040649414,1.1631414890289307,0.03858495503664017
1685710176529592800,20.0955927734375,9.559300422668457,1.1403199434280396,0.0026623522862792015
1685710176549592800,20.1155927734375,9.88829231262207,1.1605461835861206,0.11275732517242432
1685710176569622500,20.13562255859375,10.073326110839844,1.1765681505203247,0.29880595207214355
1685710176589592800,20.1555927734375,9.984625816345215,1.2388365268707275,0.3501855134963989
1685710176609592800,20.1755927734375,9.558754920959473,1.316408634185791,0.1005852073431015
1685710176629592800,20.1955927734375,9.254891395568848,1.3413658142089844,0.01697010174393654
1685710176649592800,20.2155927734375,9.388382911682129,1.2928880453109741,0.07375099509954453
1685710176669592800,20.2355927734375,9.614941596984863,1.2206119298934937,0.1502217799425125
1685710176689592800,20.2555927734375,9.827786445617676,1.1282914876937866,0.14368082582950592
1685710176709592800,20.2755927734375,10.033581733703613,1.0675362348556519,0.1256955862045288
1685710176729610000,20.29560986328125,10.122655868530273,1.0093762874603271,0.12138602137565613
1685710176749592800,20.3155927734375,10.08736515045166,1.0916601419448853,0.1759738326072693
1685710176769592800,20.3355927734375,9.667853355407715,1.27818763256073,0.15705004334449768
1685710176789592800,20.3555927734375,9.193754196166992,1.3972082138061523,0.05720226839184761
1685710176809592800,20.3755927734375,9.127452850341797,1.325439691543579,-0.01909615285694599
1685710176829592800,20.3955927734375,9.502969741821289,1.2789920568466187,0.07609730213880539
1685710176849592800,20.4155927734375,9.886884689331055,1.1914122104644775,0.15432065725326538
1685710176869592800,20.4355927734375,10.012312889099121,1.1398699283599854,0.18132725358009338
1685710176889592800,20.4555927734375,9.908116340637207,1.152597427368164,0.1080646887421608
1685710176909592800,20.4755927734375,9.752503395080566,1.158008337020874,0.1050863042473793
1685710176929592800,20.4955927734375,9.673388481140137,1.1629021167755127,0.1302350014448166
1685710176949592800,20.5155927734375,9.466022491455078,1.2242605686187744,0.05270116776227951
1685710176969592800,20.5355927734375,9.217734336853027,1.3801997900009155,0.05376419425010681
1685710176989592800,20.5555927734375,9.250075340270996,1.5610098838806152,0.1054406464099884
1685710177009592800,20.5755927734375,9.631356239318848,1.5311015844345093,0.2207549810409546
1685710177029592800,20.5955927734375,10.019696235656738,1.4633839130401611,0.2353212833404541
1685710177049594400,20.615594482421876,10.160465240478516,1.4088823795318604,0.28103139996528625
1685710177069592800,20.6355927734375,10.281879425048828,1.1407221555709839,0.15515385568141937
1685710177089592800,20.6555927734375,9.864302635192871,1.0127664804458618,-0.09219592064619064
1685710177109592800,20.6755927734375,8.95223617553711,1.2506352663040161,-0.35477280616760254
1685710177129592800,20.6955927734375,8.550652503967285,1.670329213142395,-0.09007944166660309
1685710177149592800,20.7155927734375,9.108366966247559,2.167375087738037,0.28090688586235046
1685710177169592800,20.7355927734375,9.719913482666016,2.060574531555176,0.5305072069168091
1685710177189592800,20.7555927734375,10.046807289123535,1.8154560327529907,0.3715130686759949
1685710177209592800,20.7755927734375,10.270588874816895,1.3816267251968384,0.05940493568778038
1685710177229592800,20.7955927734375,10.278412818908691,0.9660699367523193,-0.07716032862663269
1685710177249592800,20.8155927734375,9.977031707763672,0.8948472142219543,-0.18238070607185364
1685710177269592800,20.8355927734375,9.676032066345215,1.229690670967102,0.006119579542428255
1685710177289592800,20.8555927734375,9.164198875427246,1.8330870866775513,0.27069804072380066
1685710177309592800,20.8755927734375,8.747139930725098,2.3495736122131348,0.4702882468700409
1685710177329592800,20.8955927734375,8.915672302246094,2.382901191711426,0.38218164443969727
1685710177349592800,20.9155927734375,9.474344253540039,2.1322760581970215,0.29988813400268555
1685710177369592800,20.9355927734375,10.191866874694824,1.64142644405365,0.16704824566841125
1685710177389592800,20.9555927734375,10.436315536499023,1.2939990758895874,-0.07328172028064728
1685710177409592800,20.9755927734375,10.51081371307373,1.0168557167053223,-0.16641616821289062
1685710177429610000,20.99560986328125,10.507978439331055,1.0779750347137451,-0.12303323298692703
1685710177449592800,21.0155927734375,9.913220405578613,1.5300577878952026,-0.0005937620298936963
1685710177469592800,21.0355927734375,8.921321868896484,2.371610164642334,0.24957157671451569
1685710177489592800,21.0555927734375,9.011383056640625,2.521592378616333,0.260268896818161
1685710177509592800,21.0755927734375,9.426488876342773,1.9026912450790405,0.1735604703426361
1685710177529592800,21.0955927734375,9.90584659576416,1.639510989189148,-0.23593421280384064
1685710177549592800,21.1155927734375,10.31124210357666,1.1471387147903442,-0.03332728520035744
1685710177569618000,21.135617919921874,10.630514144897461,1.0627191066741943,-0.09830592572689056
1685710177589592800,21.1555927734375,9.905426025390625,1.6447111368179321,0.0388626828789711
1685710177609592800,21.1755927734375,8.967788696289062,2.4484543800354004,0.2716652750968933
1685710177629592800,21.1955927734375,8.996864318847656,2.442286968231201,0.4849982261657715
1685710177649592800,21.2155927734375,9.386696815490723,1.855736255645752,0.19605638086795807
1685710177669592800,21.2355927734375,9.607720375061035,1.2485569715499878,-0.10692504793405533
1685710177689592800,21.2555927734375,9.751947402954102,0.8929798007011414,-0.24617181718349457
1685710177709592800,21.2755927734375,9.822364807128906,1.127266764640808,-0.1390935331583023
1685710177729592800,21.2955927734375,9.639381408691406,1.91532301902771,0.30128633975982666
1685710177749592800,21.3155927734375,9.516281127929688,2.662381172180176,0.8541075587272644
1685710177769592800,21.3355927734375,9.654082298278809,2.7834317684173584,0.8396465182304382
1685710177789592800,21.3555927734375,9.145524024963379,2.3585474491119385,0.33752498030662537
1685710177809594400,21.375594482421874,9.365656852722168,1.6585209369659424,-0.1492832601070404
1685710177829592800,21.3955927734375,9.791298866271973,1.1391133069992065,-0.4057501554489136
1685710177849592800,21.4155927734375,9.733665466308594,1.0399645566940308,-0.36788344383239746
1685710177869592800,21.4355927734375,9.758966445922852,1.4320390224456787,-0.036880284547805786
1685710177889592800,21.4555927734375,9.477485656738281,2.3548600673675537,0.3341539204120636
1685710177909592800,21.4755927734375,9.276803970336914,2.9832520484924316,0.8133198618888855
1685710177929592800,21.4955927734375,9.448468208312988,2.8474624156951904,0.6926234364509583
1685710177949592800,21.5155927734375,9.949891090393066,2.0736947059631348,0.20213766396045685
1685710177969592800,21.5355927734375,10.297001838684082,1.3884741067886353,-0.07546523958444595
1685710177989592800,21.5555927734375,10.404022216796875,0.9617891311645508,-0.23873063921928406
1685710178009592800,21.5755927734375,10.609875679016113,0.7553227543830872,-0.06010403856635094
1685710178029592800,21.5955927734375,10.446151733398438,1.112566351890564,0.17566737532615662
1685710178049594400,21.615594482421876,9.487138748168945,1.9998191595077515,0.4552431106567383
1685710178069592800,21.6355927734375,8.796392440795898,2.606098175048828,0.5510111451148987
1685710178089592800,21.6555927734375,8.606034278869629,2.689512252807617,0.4945271611213684
1685710178109592800,21.6755927734375,9.067626953125,2.451049566268921,0.30841150879859924
1685710178129610000,21.69560986328125,9.781338691711426,1.8951829671859741,0.26398468017578125
1685710178149592800,21.7155927734375,10.160992622375488,1.3035279512405396,0.14711891114711761
1685710178169592800,21.7355927734375,10.102965354919434,1.1431355476379395,-0.24002350866794586
1685710178189592800,21.7555927734375,9.386726379394531,1.5308908224105835,-0.1770177036523819
1685710178209592800,21.7755927734375,8.943453788757324,2.1186673641204834,0.16191506385803223
1685710178229592800,21.7955927734375,9.165262222290039,2.3393266201019287,0.5036826133728027
1685710178249592800,21.8155927734375,9.444598197937012,2.3202016353607178,0.5806992650032043
1685710178269592800,21.8355927734375,9.405821800231934,2.1927056312561035,0.32337045669555664
1685710178289592800,21.8555927734375,9.613763809204102,1.9468498229980469,0.060812726616859436
1685710178309592800,21.8755927734375,9.908451080322266,1.7328464984893799,-0.01791820488870144
1685710178329592800,21.8955927734375,9.835122108459473,1.7407761812210083,-0.015054740011692047
1685710178349592800,21.9155927734375,9.65280818939209,1.8993489742279053,0.09501149505376816
1685710178369592800,21.9355927734375,9.747466087341309,1.8937561511993408,0.21311268210411072
1685710178389592800,21.9555927734375,9.922088623046875,1.791456699371338,0.21488438546657562
1685710178409592800,21.9755927734375,9.929165840148926,1.784982681274414,0.27109065651893616
1685710178429592800,21.9955927734375,9.770516395568848,1.9100654125213623,0.3001945912837982
1685710178449592800,22.0155927734375,9.486468315124512,2.1639370918273926,0.24325090646743774
1685710178469592800,22.0355927734375,9.317360877990723,2.4199633598327637,0.347245454788208
1685710178489592800,22.0555927734375,9.271622657775879,2.3673195838928223,0.4039401113986969
1685710178509592800,22.0755927734375,9.312591552734375,2.0139641761779785,0.04924394190311432
1685710178529592800,22.0955927734375,9.626913070678711,1.5545743703842163,-0.20822851359844208
1685710178549592800,22.1155927734375,10.184253692626953,1.212040662765503,-0.22518904507160187
1685710178569622500,22.13562255859375,10.47232437133789,1.1430972814559937,-0.021595699712634087
1685710178589592800,22.1555927734375,10.007840156555176,1.5738428831100464,0.20899465680122375
1685710178609592800,22.1755927734375,9.242500305175781,2.266897201538086,0.4539502263069153
1685710178629592800,22.1955927734375,8.862357139587402,2.6749842166900635,0.5585768222808838
1685710178649592800,22.2155927734375,9.176429748535156,2.4122636318206787,0.5107311010360718
1685710178669592800,22.2355927734375,9.547224044799805,1.9286731481552124,0.10643663257360458
1685710178689592800,22.2555927734375,9.792820930480957,1.4931870698928833,-0.2720004618167877
1685710178709592800,22.2755927734375,10.123441696166992,1.2122896909713745,-0.4320959448814392
1685710178729592800,22.2955927734375,10.237616539001465,1.3330724239349365,-0.16683755815029144
1685710178749592800,22.3155927734375,9.873525619506836,1.8520969152450562,0.2787712812423706
1685710178769592800,22.3355927734375,9.239521026611328,2.381962537765503,0.5251728892326355
1685710178789592800,22.3555927734375,8.905242919921875,2.5052545070648193,0.38528451323509216
1685710178809592800,22.3755927734375,9.153388023376465,2.0570693016052246,0.08883445709943771
1685710178829610000,22.39560986328125,9.495767593383789,1.6816586256027222,-0.16311216354370117
1685710178849592800,22.4155927734375,9.723495483398438,1.7096514701843262,-0.17509275674819946
1685710178869592800,22.4355927734375,9.880842208862305,1.9588783979415894,0.100355364382267
1685710178889592800,22.4555927734375,9.8038911819458,2.281473159790039,0.35840240120887756
1685710178909592800,22.4755927734375,9.46617603302002,2.3498706817626953,0.28813737630844116
1685710178929592800,22.4955927734375,9.287127494812012,2.063610315322876,-0.06698018312454224
1685710178949592800,22.5155927734375,9.776358604431152,1.6880176067352295,-0.059108052402734756
1685710178969592800,22.5355927734375,10.290346145629883,1.5326626300811768,0.12887509167194366
1685710178989592800,22.5555927734375,10.223260879516602,1.6165554523468018,0.24069388210773468
1685710179009594400,22.575594482421874,9.54732894897461,1.9841324090957642,0.22267991304397583
1685710179029594400,22.595594482421873,8.860308647155762,2.4490864276885986,0.12480494379997253
1685710179049594400,22.615594482421876,8.82157039642334,2.5051681995391846,0.24991634488105774
1685710179069592800,22.6355927734375,9.073976516723633,2.227163076400757,0.17922036349773407
1685710179089592800,22.6555927734375,9.547406196594238,1.9380296468734741,0.015456966124475002
1685710179109592800,22.6755927734375,10.256502151489258,1.5309579372406006,-0.05136999115347862
1685710179129592800,22.6955927734375,10.56468391418457,1.3078374862670898,0.1078348457813263
1685710179149592800,22.7155927734375,10.47337818145752,1.6213725805282593,0.2547430694103241
1685710179169592800,22.7355927734375,9.610440254211426,2.192178964614868,0.4297017455101013
1685710179189592800,22.7555927734375,8.7533540725708,2.715484380722046,0.31441614031791687
1685710179209592800,22.7755927734375,8.820239067077637,2.6746201515197754,0.2212146669626236
1685710179229592800,22.7955927734375,9.534832000732422,2.127382278442383,0.09600748121738434
1685710179249592800,22.8155927734375,10.29898452758789,1.595869541168213,0.03748362511396408
1685710179269592800,22.8355927734375,10.631826400756836,1.2179399728775024,-0.09238746017217636
1685710179289592800,22.8555927734375,10.323500633239746,1.2035938501358032,-0.17569608986377716
1685710179309592800,22.8755927734375,9.767318725585938,1.6561938524246216,0.016251839697360992
1685710179329592800,22.8955927734375,9.045907020568848,2.262798309326172,0.3778337836265564
1685710179349592800,22.9155927734375,8.705623626708984,2.875685214996338,0.4263594448566437
1685710179369592800,22.9355927734375,8.82707691192627,2.683478832244873,0.41716569662094116
1685710179389592800,22.9555927734375,9.129666328430176,2.5739870071411133,0.4962318241596222
1685710179409592800,22.9755927734375,9.870441436767578,1.8199284076690674,0.03769431263208389
1685710179429592800,22.9955927734375,10.18074893951416,1.0478655099868774,-0.23535002768039703
1685710179449592800,23.0155927734375,10.021918296813965,0.8892064690589905,-0.5962710976600647
1685710179469592800,23.0355927734375,9.811199188232422,1.2170876264572144,-0.31020236015319824
1685710179489592800,23.0555927734375,9.607701301574707,2.1201517581939697,0.3923521935939789
1685710179509592800,23.0755927734375,9.402029991149902,2.948267936706543,1.0227934122085571
1685710179529610000,23.09560986328125,9.060884475708008,3.2671468257904053,1.109626293182373
1685710179549594400,23.115594482421876,8.737170219421387,2.7807600498199463,0.42220309376716614
1685710179569619500,23.135619384765626,9.082231521606445,2.0136289596557617,-0.32474949955940247
1685710179589594400,23.155594482421876,9.821514129638672,1.1316434144973755,-0.5970851182937622
1685710179609594400,23.175594482421875,10.537466049194336,0.9829059839248657,-0.31324777007102966
1685710179629594400,23.195594482421875,10.828064918518066,1.1454148292541504,0.054444145411252975
1685710179649592800,23.2155927734375,10.521712303161621,2.1464686393737793,0.7183849811553955
1685710179669592800,23.2355927734375,9.273462295532227,3.0178914070129395,0.9095093607902527
1685710179689592800,23.2555927734375,8.364785194396973,3.1700761318206787,0.6692559719085693
1685710179709592800,23.2755927734375,8.456770896911621,2.645688772201538,0.06177040562033653
1685710179729594400,23.295594482421876,9.406540870666504,2.0445525646209717,-0.09051039814949036
1685710179749594400,23.315594482421876,10.42834758758545,1.2200181484222412,0.09902418404817581
1685710179769594400,23.335594482421875,10.696556091308594,1.0495318174362183,-0.2633526027202606
1685710179789592800,23.3555927734375,9.99077320098877,1.6927101612091064,-0.25260743498802185
1685710179809592800,23.3755927734375,10.142126083374023,2.131251335144043,0.22469103336334229
1685710179829592800,23.3955927734375,9.87117862701416,2.140387773513794,0.4137372076511383
1685710179849592800,23.4155927734375,8.99180793762207,2.3111228942871094,0.19701406359672546
1685710179869592800,23.4355927734375,8.487541198730469,2.35286808013916,0.13001471757888794
1685710179889594400,23.455594482421876,9.093647003173828,2.0612926483154297,0.04481945559382439
1685710179909594400,23.475594482421876,9.393755912780762,1.8155423402786255,-0.10824665427207947
1685710179929592800,23.4955927734375,9.78402042388916,1.7396939992904663,-0.024104822427034378
1685710179949592800,23.5155927734375,9.912302017211914,1.7574111223220825,0.18725530803203583
1685710179969592800,23.5355927734375,9.79530143737793,1.7706941366195679,-0.012114659883081913
1685710179989592800,23.5555927734375,9.682792663574219,2.0196239948272705,0.15598702430725098
1685710180009592800,23.5755927734375,9.67592716217041,2.4454662799835205,0.3456173837184906
1685710180029592800,23.5955927734375,9.24332332611084,2.7303476333618164,0.5733251571655273
1685710180049594400,23.615594482421876,9.35932731628418,2.700084924697876,0.4461546838283539
1685710180069592800,23.6355927734375,9.325425148010254,2.448042392730713,0.3386167287826538
1685710180089594400,23.655594482421876,9.489763259887695,2.2417006492614746,0.008571241982281208
1685710180109594400,23.675594482421875,10.01672649383545,1.7889858484268188,-0.033777397125959396
1685710180129592800,23.6955927734375,10.474900245666504,1.4791091680526733,-0.10694419592618942
1685710180149594400,23.715594482421874,10.347203254699707,1.642996907234192,0.05303635820746422
1685710180169594400,23.735594482421874,10.112915992736816,2.0093576908111572,0.20666749775409698
1685710180189592800,23.7555927734375,9.67004680633545,2.387373447418213,0.38672104477882385
1685710180209592800,23.7755927734375,9.222809791564941,2.7232418060302734,0.5278352499008179
1685710180229608400,23.7956083984375,9.1676664352417,2.591503143310547,0.5147821307182312
1685710180249592800,23.8155927734375,9.494609832763672,2.201200246810913,0.40151721239089966
1685710180269592800,23.8355927734375,9.75578784942627,1.6190357208251953,0.049588706344366074
1685710180289592800,23.8555927734375,9.624978065490723,1.285217046737671,-0.35170823335647583
1685710180309592800,23.8755927734375,9.766983032226562,1.4488080739974976,-0.3654700815677643
1685710180329592800,23.8955927734375,9.955397605895996,1.877408504486084,0.09651505947113037
1685710180349592800,23.9155927734375,9.49858283996582,2.431570291519165,0.47832319140434265
1685710180369592800,23.9355927734375,8.816206932067871,2.716834783554077,0.47311341762542725
1685710180389592800,23.9555927734375,8.874146461486816,2.7981324195861816,0.5323172211647034
1685710180409592800,23.9755927734375,9.310208320617676,2.7299070358276367,0.8428260684013367
1685710180429592800,23.9955927734375,9.294626235961914,2.313373565673828,0.15824715793132782
1685710180449592800,24.0155927734375,9.040457725524902,1.6580229997634888,-0.5309381484985352
1685710180469592800,24.0355927734375,9.37142276763916,1.3244054317474365,-0.6682121157646179
1685710180489592800,24.0555927734375,9.732391357421875,1.7287477254867554,-0.5867326855659485
1685710180509592800,24.0755927734375,10.076543807983398,2.1345267295837402,0.18334795534610748
1685710180529592800,24.0955927734375,9.924348831176758,2.647853136062622,0.6504088044166565
1685710180549592800,24.1155927734375,9.472180366516113,2.746063232421875,0.5721663236618042
1685710180569621000,24.13562109375,9.2957181930542,2.428065299987793,0.2871030867099762
1685710180589592800,24.1555927734375,9.678483009338379,2.1510848999023438,-0.05192544683814049
1685710180609592800,24.1755927734375,10.276468276977539,1.7135109901428223,-0.15416742861270905
1685710180629592800,24.1955927734375,10.463695526123047,1.5757007598876953,-0.032024841755628586
1685710180649592800,24.2155927734375,10.159785270690918,1.9268440008163452,0.23701639473438263
1685710180669592800,24.2355927734375,9.745790481567383,2.3944218158721924,0.5166878700256348
1685710180689592800,24.2555927734375,9.509088516235352,2.648705244064331,0.728076696395874
1685710180709592800,24.2755927734375,9.44434928894043,2.511833429336548,0.598923921585083
1685710180729592800,24.2955927734375,9.680035591125488,2.2839343547821045,0.4314447343349457
1685710180749592800,24.3155927734375,10.045303344726562,1.761366367340088,0.3008841276168823
1685710180769592800,24.3355927734375,9.909026145935059,1.4756901264190674,0.098478302359581
1685710180789592800,24.3555927734375,9.678512573242188,1.4427459239959717,-0.07964072376489639
1685710180809592800,24.3755927734375,9.492416381835938,1.7815542221069336,0.2144438624382019
1685710180829592800,24.3955927734375,9.072616577148438,2.3079049587249756,0.3466612696647644
1685710180849592800,24.4155927734375,8.769692420959473,2.404582977294922,0.20576727390289307
1685710180869592800,24.4355927734375,9.225261688232422,2.408097743988037,0.4975246787071228
1685710180889592800,24.4555927734375,9.692025184631348,2.2885119915008545,0.5554739236831665
1685710180909592800,24.4755927734375,9.444388389587402,2.1427433490753174,0.3306775391101837
1685710180929608400,24.4956083984375,9.071678161621094,2.351029634475708,0.04888959974050522
1685710180949592800,24.5155927734375,9.22976303100586,2.23356032371521,0.2824774980545044
1685710180969592800,24.5355927734375,8.94083023071289,2.074700117111206,0.06225882098078728
1685710180989592800,24.5555927734375,8.214228630065918,2.1793458461761475,-0.45200613141059875
1685710181009592800,24.5755927734375,8.60361099243164,2.123542070388794,-0.5662190914154053
1685710181029592800,24.5955927734375,10.210514068603516,2.1249306201934814,0.09416873753070831
1685710181049592800,24.6155927734375,10.850723266601562,2.2681517601013184,0.5330737829208374
1685710181069592800,24.6355927734375,10.722652435302734,2.1748738288879395,0.5723004341125488
1685710181089592800,24.6555927734375,10.274946212768555,2.4258434772491455,0.4001956284046173
1685710181109592800,24.6755927734375,9.91740608215332,2.7430942058563232,0.31891724467277527
1685710181129592800,24.6955927734375,8.770190238952637,3.131002902984619,0.5434933304786682
1685710181149592800,24.7155927734375,7.623195648193359,3.3299896717071533,0.14959929883480072
1685710181169592800,24.7355927734375,8.509499549865723,2.6935055255889893,-0.3182373046875
1685710181189592800,24.7555927734375,10.48965835571289,1.9064836502075195,-0.30790388584136963
1685710181209592800,24.7755927734375,11.613065719604492,0.9177358150482178,-0.17573440074920654
1685710181229592800,24.7955927734375,12.071765899658203,0.017094600945711136,-0.3598868250846863
1685710181249592800,24.8155927734375,10.53481388092041,0.2130264937877655,-0.5205186009407043
1685710181269592800,24.8355927734375,8.44871711730957,1.9899455308914185,-0.2925810217857361
1685710181289592800,24.8555927734375,6.8276214599609375,4.153163909912109,0.9683396816253662
1685710181309592800,24.8755927734375,6.8100481033325195,5.017528533935547,2.216858386993408
1685710181329592800,24.8955927734375,8.96487808227539,3.439002752304077,1.4411274194717407
1685710181349592800,24.9155927734375,10.264047622680664,1.6154924631118774,0.07456501573324203
1685710181369592800,24.9355927734375,10.217514991760254,0.6735272407531738,-1.0773332118988037
1685710181389592800,24.9555927734375,10.719358444213867,0.38847360014915466,-1.2129312753677368
1685710181409592800,24.9755927734375,11.234188079833984,0.669945478439331,-0.4817325472831726
1685710181429592800,24.9955927734375,10.486737251281738,2.162213087081909,0.7946929931640625
1685710181449592800,25.0155927734375,8.74081802368164,3.4741015434265137,0.7749168872833252
1685710181469592800,25.0355927734375,7.8331098556518555,4.000940799713135,1.0041090250015259
1685710181489592800,25.0555927734375,8.936511039733887,3.1056625843048096,0.2807728350162506
1685710181509592800,25.0755927734375,8.929644584655762,2.488619327545166,-0.5587109327316284
1685710181529592800,25.0955927734375,9.0191011428833,1.7762103080749512,-0.6691506505012512
1685710181549592800,25.1155927734375,10.557768821716309,1.2980116605758667,-0.23581929504871368
1685710181569618000,25.135617919921874,11.267007827758789,1.1825441122055054,0.245013028383255
1685710181589592800,25.1555927734375,11.37159538269043,1.598417043685913,0.6962721347808838
1685710181609592800,25.1755927734375,10.975173950195312,1.8656002283096313,0.5344241261482239
1685710181629608400,25.1956083984375,9.52151107788086,2.9363064765930176,0.5820878744125366
1685710181649592800,25.2155927734375,9.017071723937988,3.075045585632324,0.4503684937953949
1685710181669592800,25.2355927734375,9.30034351348877,2.3886280059814453,0.01623268611729145
1685710181689592800,25.2555927734375,9.401226043701172,2.181108236312866,0.0012066776398569345
1685710181709592800,25.2755927734375,9.058711051940918,2.431704521179199,0.17232505977153778
1685710181729594400,25.295594482421876,8.903366088867188,2.372452974319458,0.2833489775657654
1685710181749592800,25.3155927734375,8.84494686126709,2.6334590911865234,0.6682312488555908
1685710181769592800,25.3355927734375,9.626453399658203,1.784781575202942,0.35090377926826477
1685710181789592800,25.3555927734375,10.14749813079834,1.7567216157913208,0.14156435430049896
1685710181809592800,25.3755927734375,9.323748588562012,2.0533249378204346,0.1837501972913742
1685710181829592800,25.3955927734375,9.057782173156738,2.276167392730713,0.35594120621681213
1685710181849592800,25.4155927734375,9.23824691772461,2.5865039825439453,0.14806701242923737
1685710181869592800,25.4355927734375,8.956526756286621,2.8290555477142334,0.3115047812461853
1685710181889592800,25.4555927734375,8.619719505310059,3.390850305557251,0.5847694277763367
1685710181909592800,25.4755927734375,9.002792358398438,2.5873754024505615,0.20903295278549194
1685710181929592800,25.4955927734375,9.876799583435059,2.791409492492676,0.15632222592830658
1685710181949592800,25.5155927734375,10.102008819580078,2.561901092529297,0.408843457698822
1685710181969592800,25.5355927734375,10.924416542053223,2.326215982437134,0.22328324615955353
1685710181989592800,25.5555927734375,10.967608451843262,2.6070175170898438,0.3694732189178467
1685710182009592800,25.5755927734375,10.358943939208984,2.5254998207092285,-0.03736870363354683
1685710182029592800,25.5955927734375,9.58804988861084,2.530881881713867,-0.5066801309585571
1685710182049594400,25.615594482421876,8.960184097290039,2.911808729171753,-0.10722193121910095
1685710182069592800,25.6355927734375,8.824117660522461,3.280247688293457,-0.24165156483650208
1685710182089592800,25.6555927734375,8.390240669250488,2.732224702835083,-0.24516625702381134
1685710182109592800,25.6755927734375,9.25313949584961,2.107433795928955,-0.29990729689598083
1685710182129592800,25.6955927734375,9.513111114501953,1.9477308988571167,-0.46978068351745605
