time,seconds_elapsed,z,y,x
1686053869949405700,0.23840576171875,-0.06665412336587906,-0.03649483621120453,0.00376991112716496
1686053869974407200,0.2634072265625,-0.053215090185403824,-0.02183406800031662,-0.07686430215835571
1686053869994407200,0.2834072265625,-0.04300491139292717,-0.01202531810849905,-0.0789063349366188
1686053870014407200,0.3034072265625,-0.029653143137693405,0.008866272866725922,-0.03963642567396164
1686053870034407200,0.3234072265625,-0.01616174913942814,0.04000294581055641,-0.0012391837080940604
1686053870054407200,0.3434072265625,-0.04070107638835907,-0.0034382985904812813,0.0040317103266716
1686053870074407200,0.3634072265625,-0.046670105308294296,-0.05611233413219452,-0.01719149388372898
1686053870094407200,0.3834072265625,-0.02750638872385025,-0.05941100791096687,-0.031433381140232086
1686053870114405600,0.403405517578125,-0.012828170321881771,-0.014224433340132236,-0.015149458311498165
1686053870134405600,0.423405517578125,-0.010786134749650955,0.006963863503187895,-0.019425515085458755
1686053870154405600,0.443405517578125,-0.024748768657445908,-0.006108652334660292,-0.04392993822693825
1686053870174405600,0.463405517578125,-0.03269001841545105,0.00045378561480902135,-0.08173377066850662
1686053870194405600,0.483405517578125,-0.019879300147294998,0.016545720398426056,-0.10330604016780853
1686053870214407200,0.5034072265625,-0.002234021434560418,0.015446163713932037,-0.08339183032512665
1686053870234405600,0.523405517578125,0.007173303049057722,-0.002687806962057948,-0.02165953628718853
1686053870254405600,0.543405517578125,0.005846852902323008,-0.013072515837848186,0.026319565251469612
1686053870274405600,0.563405517578125,0.013613567687571049,-0.014695672318339348,0.03314380347728729
1686053870294405600,0.583405517578125,0.013194689527153969,-0.01186823844909668,-0.00989601667970419
1686053870314405600,0.603405517578125,0.011135200969874859,0.00125663704238832,-0.042935099452733994
1686053870334405600,0.623405517578125,0.011641345918178558,0.010070549324154854,-0.07588691264390945
1686053870354405600,0.643405517578125,0.0026179938577115536,0.0023038345389068127,-0.08857546001672745
1686053870374405600,0.663405517578125,-0.012252211570739746,-0.020001472905278206,-0.08241444826126099
1686053870394405600,0.683405517578125,-0.004660028964281082,0.00031415926059708,-0.06213372200727463
1686053870414405600,0.703405517578125,0.017034413293004036,0.023579398170113564,-0.023090705275535583
1686053870434405600,0.723405517578125,0.03127630054950714,0.009250245057046413,0.016807520762085915
1686053870454405600,0.743405517578125,0.030927233397960663,0.002146754879504442,0.04445353522896767
1686053870474405600,0.763405517578125,0.0339815616607666,0.00411897711455822,-0.013473941944539547
1686053870494405600,0.783405517578125,0.02666863054037094,-0.05515240505337715,-0.09723228961229324
1686053870514405600,0.803405517578125,0.010332348756492138,-0.031014500185847282,-0.09639453142881393
1686053870534405600,0.823405517578125,0.022567106410861015,0.0062831854447722435,-0.05885250121355057
1686053870554405600,0.843405517578125,0.02520255371928215,0.011135200969874859,-0.026982789859175682
1686053870574405600,0.863405517578125,0.03202679008245468,0.013212142512202263,-0.02085668407380581
1686053870594405600,0.883405517578125,0.040369465947151184,-0.008220500312745571,-0.04375540465116501
1686053870614407200,0.9034072265625,0.03984586521983147,-0.03176499158143997,-0.045692719519138336
1686053870634405600,0.923405517578125,0.037489671260118484,-0.01958259381353855,-0.01186823844909668
1686053870654405600,0.943405517578125,0.0420449823141098,-0.0013613568153232336,0.021066123619675636
1686053870674405600,0.963405517578125,0.03659955412149429,0.010471975430846214,0.019146261736750603
1686053870694405600,0.983405517578125,0.022183135151863098,0.02076941728591919,-0.012548916973173618
1686053870714405600,1.003405517578125,0.012775810435414314,0.013700834475457668,-0.05181882530450821
1686053870734405600,1.023405517578125,0.007016223389655352,0.004380776546895504,-0.05536184459924698
1686053870754405600,1.043405517578125,0.018325956538319588,0.004939281847327948,-0.02272418700158596
1686053870774405600,1.063405517578125,0.03234095126390457,0.014625859446823597,-0.015009831637144089
1686053870794405600,1.083405517578125,0.02975786291062832,-0.013229595497250557,-0.027628561481833458
1686053870814405600,1.103405517578125,0.020001472905278206,-0.0345749706029892,-0.031084313988685608
1686053870834405600,1.123405517578125,0.015742870047688484,-0.019914206117391586,-0.007225662935525179
1686053870854407200,1.1434072265625,0.005864306353032589,-0.0051312679424881935,-0.0010646508308127522
1686053870874405600,1.163405517578125,0.002007128670811653,0.0038746309000998735,-0.010559242218732834
1686053870894407200,1.1834072265625,-0.0010471974965184927,0.026319565251469612,-0.03853686898946762
1686053870914407200,1.2034072265625,-0.010157816112041473,0.01647590845823288,-0.069708451628685
1686053870934405600,1.223405517578125,-0.007295476272702217,0.008429939858615398,-0.07740534842014313
1686053870954405600,1.243405517578125,-0.0022165682166814804,0.0009773843921720982,-0.04419173672795296
1686053870974405600,1.263405517578125,0.0028972465079277754,0.003926991019397974,-0.02316051907837391
1686053870994405600,1.283405517578125,-0.00008726646046852693,0.01837831735610962,-0.04483750835061073
1686053871014405600,1.303405517578125,-0.0077667152509093285,0.031014500185847282,-0.06468190252780914
1686053871034405600,1.323405517578125,-0.009861109778285027,0.035238198935985565,-0.056635934859514236
1686053871054405600,1.343405517578125,-0.006492624990642071,0.013613567687571049,-0.02396337129175663
1686053871074405600,1.363405517578125,-0.0021293016616255045,0.0036651913542300463,-0.014957471750676632
1686053871094405600,1.383405517578125,0.00017453292093705386,0.008272860199213028,-0.04675737023353577
1686053871114405600,1.403405517578125,-0.003996803890913725,0.035639625042676926,-0.11669271439313889
1686053871134405600,1.423405517578125,-0.014556045643985271,0.057997290045022964,-0.15488052368164062
1686053871154405600,1.443405517578125,-0.03029891662299633,0.052063170820474625,-0.1710771769285202
1686053871174405600,1.463405517578125,-0.052726395428180695,0.049672070890665054,-0.1765749603509903
1686053871194405600,1.483405517578125,-0.08014551550149918,0.035988688468933105,-0.1642005741596222
1686053871214405600,1.503405517578125,-0.08892452716827393,0.038868483155965805,-0.11454595625400543
1686053871234405600,1.523405517578125,-0.08946557343006134,0.05297074094414711,-0.03272492438554764
1686053871254405600,1.543405517578125,-0.07682939618825912,0.028152160346508026,0.020926497876644135
1686053871274405600,1.563405517578125,-0.05324999615550041,-0.007853982038795948,0.03419100120663643
1686053871294405600,1.583405517578125,-0.03879866749048233,-0.03248057886958122,-0.016982054337859154
1686053871314405600,1.603405517578125,-0.03508111834526062,-0.04663519561290741,-0.11149163544178009
1686053871334405600,1.623405517578125,-0.043214350938797,-0.014800392091274261,-0.17734290659427643
1686053871354405600,1.643405517578125,-0.06068509817123413,0.040282197296619415,-0.19001398980617523
1686053871374405600,1.663405517578125,-0.0677013248205185,0.06223843991756439,-0.13877113163471222
1686053871394405600,1.683405517578125,-0.058259088546037674,0.05216789245605469,-0.06586872786283493
1686053871414405600,1.703405517578125,-0.03906046971678734,0.00989601667970419,-0.015289084054529667
1686053871434407200,1.7234072265625,-0.014643312431871891,-0.011100294068455696,0.017086774110794067
1686053871454405600,1.743405517578125,0.0003490658418741077,0.008779006078839302,0.017435839399695396
1686053871474405600,1.763405517578125,0.00890117883682251,0.01926843449473381,-0.005742133129388094
1686053871494405600,1.783405517578125,0.002373647876083851,-0.004153883550316095,-0.03232349827885628
1686053871514407200,1.8034072265625,-0.0006108652451075613,-0.01136209350079298,-0.0486772321164608
1686053871534405600,1.823405517578125,0.0019547687843441963,0.0039618974551558495,-0.058712877333164215
1686053871554405600,1.843405517578125,0.00799360778182745,0.040735986083745956,-0.0622209869325161
1686053871574405600,1.863405517578125,0.005462880712002516,0.06728244572877884,-0.04684463515877724
1686053871594405600,1.883405517578125,0.013665927574038506,0.07445574551820755,-0.006719517521560192
1686053871614405600,1.903405517578125,0.035150930285453796,0.05859070271253586,0.010873401537537575
1686053871634405600,1.923405517578125,0.07860963046550751,0.0518362782895565,-0.013369222171604633
1686053871654405600,1.943405517578125,0.12112584710121155,0.04230678081512451,-0.056740652769804
1686053871674430500,1.963430419921875,0.14531610906124115,0.03885103017091751,-0.03211405873298645
1686053871694405600,1.983405517578125,0.16336281597614288,0.05309291556477547,0.0584685280919075
1686053871714407200,2.0034072265625,0.18774506449699402,0.08492772281169891,0.16339772939682007
1686053871734407200,2.0234072265625,0.21362830698490143,0.05605997517704964,0.17847736179828644
1686053871754407200,2.0434072265625,0.19306832551956177,-0.008377579972147942,0.09548696130514145
1686053871774405600,2.063405517578125,0.16193164885044098,-0.12524482607841492,-0.02117084339261055
1686053871794405600,2.083405517578125,0.14742796123027802,-0.21987657248973846,-0.06560692936182022
1686053871814405600,2.103405517578125,0.16091935336589813,-0.24288001656532288,-0.012060225009918213
1686053871834405600,2.123405517578125,0.22202333807945251,-0.1898394674062729,0.1690525859594345
1686053871854405600,2.143405517578125,0.2761634588241577,-0.04269075393676758,0.3223797678947449
1686053871874405600,2.163405517578125,0.3136356770992279,0.09213592857122421,0.34122931957244873
1686053871894405600,2.183405517578125,0.32416000962257385,0.1273043155670166,0.24816836416721344
1686053871914405600,2.203405517578125,0.3027622699737549,0.08326965570449829,0.15168656408786774
1686053871934405600,2.223405517578125,0.22703242301940918,-0.02525491453707218,0.0394618958234787
1686053871954405600,2.243405517578125,0.1385267823934555,-0.09091419726610184,-0.05522221699357033
1686053871974405600,2.263405517578125,0.09297368675470352,-0.062081363052129745,-0.022218041121959686
1686053871994405600,2.283405517578125,0.0956265926361084,-0.005166174378246069,0.09384635090827942
1686053872014405600,2.303405517578125,0.10574949532747269,-0.01516691129654646,0.20011945068836212
1686053872034405600,2.323405517578125,0.11887437850236893,-0.05867796763777733,0.24462534487247467
1686053872054405600,2.343405517578125,0.1068490594625473,-0.09786061197519302,0.2090904414653778
1686053872074405600,2.363405517578125,0.08176867663860321,-0.10009463131427765,0.11557570099830627
1686053872094405600,2.383405517578125,0.05482079088687897,-0.07801621407270432,0.01401499379426241
1686053872114405600,2.403405517578125,0.04548327997326851,-0.03387684002518654,-0.0855560377240181
1686053872134405600,2.423405517578125,0.04295255243778229,-0.00143117003608495,-0.11840313673019409
1686053872154405600,2.443405517578125,0.04888667166233063,-0.016667895019054413,-0.10967648774385452
1686053872174405600,2.463405517578125,0.06780604273080826,-0.050823986530303955,-0.07974409312009811
1686053872194405600,2.483405517578125,0.0852593332529068,-0.04366813600063324,-0.04743804782629013
1686053872214405600,2.503405517578125,0.07208209484815598,0.003403391921892762,-0.043598324060440063
1686053872234405600,2.523405517578125,0.03604104742407799,-0.03747221827507019,-0.06157521530985832
1686053872254405600,2.543405517578125,-0.05373868718743324,-0.176854208111763,-0.15282103419303894
1686053872274405600,2.563405517578125,-0.18622663617134094,-0.2921332120895386,-0.28298768401145935
1686053872294405600,2.583405517578125,-0.32388076186180115,-0.2787639796733856,-0.2460041642189026
1686053872314405600,2.603405517578125,-0.45703190565109253,-0.1655968427658081,0.0630936548113823
1686053872334405600,2.623405517578125,-0.47914522886276245,-0.059602994471788406,0.46191883087158203
1686053872354405600,2.643405517578125,-0.5424832105636597,-0.14032447338104248,0.5034925937652588
1686053872374405600,2.663405517578125,-0.7510849833488464,-0.20402899384498596,0.05695009231567383
1686053872394405600,2.683405517578125,-0.8678998947143555,-0.061453044414520264,-0.2557256519794464
1686053872414405600,2.703405517578125,-0.8169711828231812,0.14985397458076477,-0.08459610491991043
1686053872434405600,2.723405517578125,-0.6871535778045654,0.2848551869392395,0.34697145223617554
1686053872454405600,2.743405517578125,-0.5880886912345886,0.15376350283622742,0.5479460954666138
1686053872474405600,2.763405517578125,-0.5806710124015808,-0.11056660860776901,0.3983888626098633
1686053872494405600,2.783405517578125,-0.6836803555488586,-0.35503488779067993,0.09859365224838257
1686053872514405600,2.803405517578125,-0.8313875794410706,-0.4372747838497162,-0.1039692610502243
1686053872534405600,2.823405517578125,-0.8629082441329956,-0.15111060440540314,-0.08068656921386719
1686053872554405600,2.843405517578125,-0.7728841304779053,0.24235641956329346,0.11625637859106064
1686053872574407200,2.8634072265625,-0.6216862797737122,0.4642575681209564,0.2994635999202728
1686053872594405600,2.883405517578125,-0.4746597409248352,0.38844048976898193,0.3704635798931122
1686053872614405600,2.903405517578125,-0.3747570812702179,0.1414065808057785,0.36941638588905334
1686053872634405600,2.923405517578125,-0.2990446984767914,-0.010594148188829422,0.28387778997421265
1686053872654405600,2.943405517578125,-0.23375195264816284,0.0026179938577115536,0.16578882932662964
1686053872674405600,2.963405517578125,-0.17493435740470886,0.09986773878335953,0.07967428117990494
1686053872694405600,2.983405517578125,-0.1108807697892189,0.17647023499011993,0.013439035043120384
1686053872714405600,3.003405517578125,-0.0460941456258297,0.20655971765518188,-0.027122415602207184
1686053872734405600,3.023405517578125,0.0019373154500499368,0.16886059939861298,-0.034662239253520966
1686053872754405600,3.043405517578125,0.035901423543691635,0.08494517207145691,-0.033859387040138245
1686053872774405600,3.063405517578125,0.0915774255990982,0.0119555052369833,-0.07550293952226639
1686053872794405600,3.083405517578125,0.16886059939861298,0.060562923550605774,-0.09049531817436218
1686053872814405600,3.103405517578125,0.2526364028453827,0.1664694994688034,-0.08571311831474304
1686053872834405600,3.123405517578125,0.29771825671195984,0.19085174798965454,-0.08428195118904114
1686053872854405600,3.143405517578125,0.32857567071914673,0.1252971887588501,-0.11321950703859329
1686053872874405600,3.163405517578125,0.4790056049823761,0.10848966240882874,-0.07668976485729218
1686053872894405600,3.183405517578125,0.5661324262619019,0.054681167006492615,0.01448623277246952
1686053872914405600,3.203405517578125,0.49099603295326233,-0.20785126090049744,-0.36676350235939026
1686053872934405600,3.223405517578125,0.2808758318424225,-0.26806512475013733,-0.868842363357544
1686053872954405600,3.243405517578125,0.053441982716321945,-0.13051572442054749,-0.6703809499740601
1686053872974405600,3.263405517578125,0.08052948862314224,0.044401176273822784,0.17235125601291656
1686053872994405600,3.283405517578125,0.2753605842590332,0.3704461455345154,0.9051800966262817
1686053873014405600,3.303405517578125,0.4014606475830078,0.43762385845184326,0.9128420948982239
1686053873034405600,3.323405517578125,0.3856479525566101,0.29253464937210083,0.4760560095310211
1686053873054405600,3.343405517578125,0.33686599135398865,0.07253587990999222,-0.02361430414021015
1686053873074405600,3.363405517578125,0.3208962380886078,-0.044575709849596024,-0.27033403515815735
1686053873094405600,3.383405517578125,0.3089756369590759,-0.03166027367115021,-0.19404570758342743
1686053873114405600,3.403405517578125,0.3096912205219269,-0.03410373255610466,0.08714429289102554
1686053873134405600,3.423405517578125,0.29907962679862976,-0.1299223154783249,0.36800268292427063
1686053873154405600,3.443405517578125,0.26481881737709045,-0.24301964044570923,0.5106309652328491
1686053873174405600,3.463405517578125,0.21666517853736877,-0.28412213921546936,0.5111021995544434
1686053873194405600,3.483405517578125,0.12692034244537354,-0.26883307099342346,0.4560021758079529
1686053873214407200,3.5034072265625,0.06333799660205841,-0.010908307507634163,0.2096664011478424
1686053873234407200,3.5234072265625,-0.013508847914636135,0.10918779671192169,0.026459190994501114
1686053873254407200,3.5434072265625,-0.11863002926111221,0.20121900737285614,-0.10613346844911575
1686053873274407200,3.5634072265625,-0.17893114686012268,0.21333159506320953,-0.2293013632297516
1686053873294405600,3.583405517578125,-0.2416233867406845,0.1800132542848587,-0.22020819783210754
1686053873314405600,3.603405517578125,-0.30085986852645874,0.08424704521894455,-0.12768828868865967
1686053873334405600,3.623405517578125,-0.35033994913101196,-0.06476917117834091,-0.004869468510150909
1686053873354405600,3.643405517578125,-0.4282863438129425,-0.22019073367118835,0.06531021744012833
1686053873374405600,3.663405517578125,-0.5399525165557861,-0.3283662497997284,0.005427973810583353
1686053873394405600,3.683405517578125,-0.7120594382286072,-0.33253759145736694,-0.07585200667381287
1686053873414405600,3.703405517578125,-0.8800124526023865,-0.21813124418258667,-0.02263692021369934
1686053873434405600,3.723405517578125,-0.864531397819519,-0.04968952387571335,0.22563616931438446
1686053873454405600,3.743405517578125,-0.9201725125312805,-0.050649452954530716,0.24158847332000732
1686053873474405600,3.763405517578125,-1.027388095855713,-0.29831168055534363,-0.03344050794839859
1686053873494405600,3.783405517578125,-1.075035572052002,-0.3000395596027374,-0.3033207654953003
1686053873514405600,3.803405517578125,-0.9815033674240112,-0.29424506425857544,-0.1391027420759201
1686053873534405600,3.823405517578125,-0.7488684058189392,-0.34257322549819946,0.14870205521583557
1686053873554405600,3.843405517578125,-0.6131516098976135,-0.46500808000564575,0.21823596954345703
1686053873574405600,3.863405517578125,-0.5948256850242615,-0.5648409128189087,0.11171852797269821
1686053873594405600,3.883405517578125,-0.6357012987136841,-0.5847899913787842,-0.024382250383496284
1686053873614405600,3.903405517578125,-0.6568720936775208,-0.356518417596817,-0.14447835087776184
1686053873634405600,3.923405517578125,-0.6113190054893494,-0.13212142884731293,-0.18011797964572906
1686053873654405600,3.943405517578125,-0.5609488487243652,-0.005148721393197775,-0.06571164727210999
1686053873674405600,3.963405517578125,-0.48576003313064575,0.010262535884976387,0.21670007705688477
1686053873694405600,3.983405517578125,-0.4047243893146515,-0.039653878659009933,0.44430845975875854
1686053873714405600,4.003405517578125,-0.33056536316871643,-0.09334021061658859,0.4841543436050415
1686053873734405600,4.023405517578125,-0.26513296365737915,-0.014817845076322556,0.417570024728775
1686053873754405600,4.043405517578125,-0.24343852698802948,0.18083356320858002,0.29571112990379333
1686053873774405600,4.063405517578125,-0.26169466972351074,0.6807831525802612,0.005393067374825478
1686053873794405600,4.083405517578125,-0.1832246631383896,0.9534907937049866,-0.3101973533630371
1686053873814405600,4.103405517578125,-0.034173548221588135,1.021192193031311,-0.5486442446708679
1686053873834405600,4.123405517578125,0.0506843626499176,0.8545132279396057,-0.494189977645874
1686053873854405600,4.143405517578125,0.11831586807966232,0.486161470413208,-0.2989225387573242
1686053873874405600,4.163405517578125,0.18744836747646332,0.03396410867571831,-0.06576400250196457
1686053873894405600,4.183405517578125,0.2600191533565521,-0.0061610122211277485,-0.16598081588745117
1686053873914405600,4.203405517578125,0.274173766374588,0.039618972688913345,-0.426314115524292
1686053873934405600,4.223405517578125,0.18537141382694244,0.02963569015264511,-0.6445326209068298
1686053873954405600,4.243405517578125,0.09601055830717087,-0.22504276037216187,-0.7053224444389343
1686053873974405600,4.263405517578125,0.15346680581569672,-0.08606218546628952,-0.33803537487983704
1686053873994405600,4.283405517578125,0.07347836345434189,0.0748746246099472,-0.08766788989305496
1686053874014407200,4.3034072265625,-0.13370966911315918,-0.061226148158311844,-0.39678314328193665
1686053874034407200,4.3234072265625,-0.29731684923171997,-0.3101799190044403,-0.5734279155731201
1686053874054407200,4.3434072265625,-0.20840977132320404,-0.42149701714515686,-0.14248867332935333
1686053874074405600,4.363405517578125,0.13039354979991913,-0.11569787561893463,0.44336599111557007
1686053874094405600,4.383405517578125,0.346779465675354,0.42905429005622864,0.7390247583389282
1686053874114405600,4.403405517578125,0.4577125906944275,0.45722389221191406,0.44891613721847534
1686053874134405600,4.423405517578125,0.4628089666366577,0.22195352613925934,-0.07499679923057556
1686053874154405600,4.443405517578125,0.3767642378807068,-0.0037350046914070845,-0.49551641941070557
1686053874174405600,4.463405517578125,0.2669830024242401,-0.19982273876667023,-0.5964837074279785
1686053874194405600,4.483405517578125,0.23104669153690338,-0.18812903761863708,-0.3459940552711487
1686053874214405600,4.503405517578125,0.1794198453426361,-0.08316493779420853,0.059637900441884995
1686053874234405600,4.523405517578125,0.0786270797252655,0.01532399095594883,0.40399137139320374
1686053874254405600,4.543405517578125,-0.04682718217372894,-0.03331833705306053,0.5792922377586365
1686053874274405600,4.563405517578125,-0.18109536170959473,-0.09105382859706879,0.6605722308158875
1686053874294405600,4.583405517578125,-0.2871590256690979,-0.030839968472719193,0.6803467869758606
1686053874314405600,4.603405517578125,-0.395823210477829,0.11276572197675705,0.6653195023536682
1686053874334405600,4.623405517578125,-0.5014156103134155,0.11910127103328705,0.5979323387145996
1686053874354405600,4.643405517578125,-0.6095038652420044,0.02192133478820324,0.45493751764297485
1686053874374405600,4.663405517578125,-0.7076262831687927,-0.05682792142033577,0.28270843625068665
1686053874394405600,4.683405517578125,-0.8118922710418701,-0.05956808850169182,0.15603242814540863
1686053874414405600,4.703405517578125,-0.8836427330970764,-0.04574507847428322,0.08447393774986267
1686053874434405600,4.723405517578125,-0.9349903464317322,-0.057299159467220306,0.007749261800199747
1686053874454405600,4.743405517578125,-1.016409993171692,-0.160151407122612,-0.10143853724002838
1686053874474405600,4.763405517578125,-1.1757760047912598,-0.3110176622867584,-0.2546784579753876
1686053874494405600,4.783405517578125,-1.2832359075546265,-0.41008254885673523,-0.37144097685813904
1686053874514405600,4.803405517578125,-1.2286244630813599,-0.186610609292984,-0.1950056403875351
1686053874534405600,4.823405517578125,-1.313482403755188,0.2030690610408783,0.018587756901979446
1686053874554405600,4.843405517578125,-1.4816797971725464,0.09145525097846985,-0.24664993584156036
1686053874574405600,4.863405517578125,-1.6410807371139526,-0.3229557275772095,-0.456839919090271
1686053874594405600,4.883405517578125,-1.6939642429351807,-0.6326295137405396,-0.1690874993801117
1686053874614405600,4.903405517578125,-1.4983477592468262,-0.6245136857032776,0.4504694640636444
1686053874634405600,4.923405517578125,-1.3826149702072144,-0.3390127420425415,0.8481602072715759
1686053874654405600,4.943405517578125,-1.4407867193222046,-0.29998719692230225,0.5965709686279297
1686053874674405600,4.963405517578125,-1.5560832023620605,-0.5476668477058411,-0.09011135250329971
1686053874694405600,4.983405517578125,-1.5846542119979858,-0.5705306529998779,-0.6692290306091309
1686053874714405600,5.003405517578125,-1.561581015586853,-0.3986855447292328,-0.8098152875900269
1686053874734405600,5.023405517578125,-1.4850482940673828,-0.18767525255680084,-0.4118278920650482
1686053874754405600,5.043405517578125,-1.4106099605560303,-0.022846359759569168,0.16512559354305267
1686053874774405600,5.063405517578125,-1.3247572183609009,0.03269001841545105,0.505778968334198
1686053874794405600,5.083405517578125,-1.2585394382476807,0.02324778586626053,0.5567774772644043
1686053874814405600,5.103405517578125,-1.1980113983154297,0.00808087456971407,0.5128300786018372
1686053874834405600,5.123405517578125,-1.1342895030975342,0.029914943501353264,0.44947463274002075
1686053874854405600,5.143405517578125,-0.9938951730728149,0.08070402592420578,0.3214372992515564
1686053874874405600,5.163405517578125,-0.9674185514450073,0.031171580776572227,0.165911003947258
1686053874894407200,5.1834072265625,-0.9814161062240601,-0.01202531810849905,0.03520328924059868
1686053874914407200,5.2034072265625,-0.9851336479187012,-0.06759659945964813,-0.04804891347885132
1686053874934405600,5.223405517578125,-0.9299637675285339,-0.07620107382535934,-0.06447245925664902
1686053874954405600,5.243405517578125,-0.8673588037490845,0.01788962446153164,0.08199556916952133
1686053874974405600,5.263405517578125,-0.8007047176361084,0.1921083927154541,0.32326987385749817
1686053874994405600,5.283405517578125,-0.7814362645149231,0.3171437680721283,0.4224918484687805
1686053875014405600,5.303405517578125,-0.790826141834259,0.3482106328010559,0.3029367923736572
1686053875034405600,5.323405517578125,-0.7630928754806519,0.27577948570251465,0.10821041464805603
1686053875054405600,5.343405517578125,-0.6455274820327759,0.44694390892982483,0.012566370889544487
1686053875074405600,5.363405517578125,-0.6740810871124268,0.4057890474796295,-0.3075619339942932
1686053875094405600,5.383405517578125,-0.8084539771080017,-0.3911806344985962,-0.7728317975997925
1686053875114405600,5.403405517578125,-1.0062172412872314,-1.0737614631652832,-0.6491402983665466
1686053875134405600,5.423405517578125,-1.0724174976348877,-1.0011557340621948,0.18156659603118896
1686053875154405600,5.443405517578125,-0.9731082916259766,-0.2462310492992401,0.9480105042457581
1686053875174405600,5.463405517578125,-0.9275726675987244,0.4484100043773651,1.238503098487854
1686053875194405600,5.483405517578125,-1.0116102695465088,0.49207812547683716,0.9067683815956116
1686053875214405600,5.503405517578125,-1.1965627670288086,-0.06745697557926178,0.1952848881483078
1686053875234405600,5.523405517578125,-1.3647427558898926,-0.5292710661888123,-0.3721041977405548
1686053875254405600,5.543405517578125,-1.368791937828064,-0.6275506019592285,-0.46242499351501465
1686053875274405600,5.563405517578125,-1.403855562210083,-0.5306324362754822,-0.19627973437309265
1686053875294405600,5.583405517578125,-1.455953598022461,-0.4116533696651459,0.13400638103485107
1686053875314405600,5.603405517578125,-1.5128339529037476,-0.4324053227901459,0.25385814905166626
1686053875334405600,5.623405517578125,-1.5388742685317993,-0.5083620548248291,0.13639748096466064
1686053875354405600,5.643405517578125,-1.598145604133606,-0.5451186895370483,0.009756390936672688
1686053875374405600,5.663405517578125,-1.6560207605361938,-0.43425536155700684,-0.019652407616376877
1686053875394405600,5.683405517578125,-1.6925853490829468,-0.18889698386192322,0.04398229718208313
1686053875414405600,5.703405517578125,-1.7895383834838867,-0.08189085125923157,0.0509810671210289
1686053875434405600,5.723405517578125,-1.918134331703186,-0.08796459436416626,-0.004642575979232788
1686053875454405600,5.743405517578125,-2.0352110862731934,-0.026825711131095886,-0.04113740846514702
1686053875474405600,5.763405517578125,-2.0625951290130615,0.019460421055555344,-0.017819812521338463
1686053875494405600,5.783405517578125,-2.074620485305786,-0.07847000658512115,0.06937684118747711
1686053875514405600,5.803405517578125,-2.0822999477386475,-0.24577726423740387,0.1282118856906891
1686053875534405600,5.823405517578125,-2.1079039573669434,-0.41034436225891113,0.11143927276134491
1686053875554405600,5.843405517578125,-2.096122980117798,-0.41315433382987976,0.1353502869606018
1686053875574405600,5.863405517578125,-2.03973126411438,-0.36653658747673035,0.23422318696975708
1686053875594405600,5.883405517578125,-1.8783756494522095,-0.27864181995391846,0.3893480598926544
1686053875614405600,5.903405517578125,-1.7961183786392212,-0.23202407360076904,0.5311211347579956
1686053875634407200,5.9234072265625,-1.842229962348938,-0.4796339273452759,0.378404825925827
1686053875654405600,5.943405517578125,-1.9719951152801514,-0.735743522644043,0.2699151635169983
1686053875674405600,5.963405517578125,-2.008629560470581,-0.8517032265663147,0.5646663904190063
1686053875694405600,5.983405517578125,-1.8911515474319458,-0.8023976683616638,1.0128145217895508
1686053875714405600,6.003405517578125,-1.7467952966690063,-0.6585825085639954,1.1891975402832031
1686053875734405600,6.023405517578125,-1.7230414152145386,-0.7537553310394287,0.9460557103157043
1686053875754405600,6.043405517578125,-1.7904285192489624,-0.9490053057670593,0.381965309381485
1686053875774405600,6.063405517578125,-1.848792314529419,-0.8212122917175293,-0.3108431398868561
1686053875794405600,6.083405517578125,-1.8548136949539185,-0.4787438213825226,-0.9306444525718689
1686053875814405600,6.103405517578125,-1.8297333717346191,-0.25740116834640503,-1.1318634748458862
1686053875834405600,6.123405517578125,-1.7171072959899902,-0.1327497363090515,-0.7149741053581238
1686053875854405600,6.143405517578125,-1.5686321258544922,-0.12742649018764496,0.013596114702522755
1686053875874405600,6.163405517578125,-1.427958607673645,-0.14014993607997894,0.6098355054855347
1686053875894407200,6.1834072265625,-1.2468806505203247,0.003996803890913725,0.8199033141136169
1686053875914405600,6.203405517578125,-1.0977247953414917,0.002286381321027875,0.7636862397193909
1686053875934407200,6.2234072265625,-0.9788155555725098,-0.07768460363149643,0.5486617088317871
1686053875954405600,6.243405517578125,-0.8792968988418579,-0.1140747219324112,0.3099181056022644
1686053875974405600,6.263405517578125,-0.7941771745681763,-0.13428562879562378,0.028937559574842453
1686053875994405600,6.283405517578125,-0.7407701015472412,-0.07944738864898682,-0.22450169920921326
1686053876014405600,6.303405517578125,-0.5971818566322327,0.09471901506185532,-0.3208438754081726
1686053876034405600,6.323405517578125,-0.48256608843803406,0.12580333650112152,-0.21071359515190125
1686053876054405600,6.343405517578125,-0.37138861417770386,0.14929546415805817,0.003054326167330146
1686053876074405600,6.363405517578125,-0.30948176980018616,0.27642524242401123,0.16837191581726074
1686053876094405600,6.383405517578125,-0.2831447720527649,0.3041061758995056,0.0837932601571083
1686053876114405600,6.403405517578125,-0.22472859919071198,0.08363617956638336,-0.15631169080734253
1686053876134407200,6.4234072265625,-0.10384708642959595,-0.4375714957714081,-0.3030589818954468
1686053876154405600,6.443405517578125,0.08770279586315155,-0.6411117911338806,-0.18125243484973907
1686053876174405600,6.463405517578125,0.1655968427658081,-0.1342507302761078,0.07649777829647064
1686053876194405600,6.483405517578125,0.04443608224391937,0.1537984162569046,0.06909758597612381
1686053876214405600,6.503405517578125,-0.12461651116609573,-0.04740314185619354,-0.01080358773469925
1686053876234405600,6.523405517578125,-0.1788962483406067,-0.30916762351989746,0.1624203324317932
1686053876254405600,6.543405517578125,0.042411502450704575,-0.1278802752494812,0.5234591364860535
1686053876274405600,6.563405517578125,0.23799309134483337,0.4423885941505432,0.8058534264564514
1686053876294405600,6.583405517578125,0.34470251202583313,0.812869668006897,0.8048760294914246
1686053876314405600,6.603405517578125,0.43589597940444946,0.6927386522293091,0.4976806342601776
1686053876334405600,6.623405517578125,0.5885599255561829,0.2696010172367096,0.089867003262043
1686053876354405600,6.643405517578125,0.35782739520072937,-0.3571641743183136,-0.07211700081825256
1686053876374405600,6.663405517578125,0.09154251962900162,-0.4567875564098358,-0.1800132542848587
1686053876394405600,6.683405517578125,0.06839945167303085,-0.5536708235740662,0.07730063050985336
1686053876414405600,6.703405517578125,0.1555088311433792,-0.5355717539787292,0.3305828273296356
1686053876434405600,6.723405517578125,0.14840534329414368,-0.42929863929748535,0.4107806980609894
1686053876454405600,6.743405517578125,0.11152654141187668,-0.27687904238700867,0.34547045826911926
1686053876474405600,6.763405517578125,0.04787437990307808,-0.3821223974227905,0.30717796087265015
1686053876494405600,6.783405517578125,0.0091455252841115,-0.2243620753288269,0.23052307963371277
1686053876514405600,6.803405517578125,-0.03719296678900719,0.04827580600976944,0.2143089771270752
1686053876534405600,6.823405517578125,-0.08004079759120941,0.34602898359298706,0.1471661627292633
1686053876554405600,6.843405517578125,-0.15966272354125977,0.4011639356613159,0.06951646506786346
1686053876574405600,6.863405517578125,-0.1809208244085312,0.135402649641037,0.022218041121959686
1686053876594405600,6.883405517578125,-0.13980087637901306,-0.04070107638835907,0.1005309671163559
1686053876614405600,6.903405517578125,-0.13733996450901031,0.5346816182136536,0.3004235327243805
1686053876634405600,6.923405517578125,-0.1313011199235916,0.7646636366844177,0.22396065294742584
1686053876654405600,6.943405517578125,-0.14149384200572968,-0.007819075137376785,-0.02830924093723297
1686053876674405600,6.963405517578125,-0.16653931140899658,-0.32796481251716614,-0.25326472520828247
1686053876694405600,6.983405517578125,-0.27927014231681824,-0.45694464445114136,-0.36618754267692566
1686053876714405600,7.003405517578125,-0.4887969195842743,-0.30290189385414124,-0.5812819004058838
1686053876734405600,7.023405517578125,-0.634933352470398,-0.4011639356613159,-0.8885296583175659
1686053876754405600,7.043405517578125,-0.9160011410713196,-0.8606218695640564,-0.7590611577033997
1686053876774405600,7.063405517578125,-0.8416675925254822,-0.6455274820327759,-0.17472490668296814
1686053876794405600,7.083405517578125,-0.6418972015380859,0.0812101662158966,0.41034436225891113
1686053876814405600,7.103405517578125,-0.5817008018493652,0.5391496419906616,0.605000913143158
1686053876834405600,7.123405517578125,-0.5361127853393555,0.28478536009788513,0.3254515528678894
1686053876854405600,7.143405517578125,-0.47689375281333923,-0.24350833892822266,-0.15313519537448883
1686053876874405600,7.163405517578125,-0.38723620772361755,-0.5886297225952148,-0.3738320767879486
1686053876894405600,7.183405517578125,-0.2855009436607361,-0.565242350101471,-0.19408060610294342
1686053876914405600,7.203405517578125,-0.27900832891464233,-0.28295278549194336,0.1264665573835373
1686053876934405600,7.223405517578125,-0.2797064781188965,-0.13152800500392914,0.33428290486335754
1686053876954405600,7.243405517578125,-0.2626895010471344,-0.058398716151714325,0.5419421792030334
1686053876974405600,7.263405517578125,-0.1388060301542282,-0.08473573625087738,0.7677528858184814
1686053876994405600,7.283405517578125,-0.0541401132941246,0.06803293526172638,0.874444842338562
1686053877014405600,7.303405517578125,0.009110618382692337,0.19922932982444763,0.7160212993621826
1686053877034405600,7.323405517578125,0.012601276859641075,0.12243484705686569,0.41493457555770874
1686053877054405600,7.343405517578125,0.020176006481051445,-0.03396410867571831,0.08302531391382217
1686053877074405600,7.363405517578125,0.05169665068387985,-0.15245451033115387,-0.2151816487312317
1686053877094405600,7.383405517578125,0.1906772255897522,-0.24415411055088043,-0.3902905285358429
1686053877114405600,7.403405517578125,0.29279643297195435,-0.2359336018562317,-0.37138861417770386
1686053877134405600,7.423405517578125,0.2715732455253601,-0.003717551240697503,-0.2687807083129883
1686053877154405600,7.443405517578125,0.14779448509216309,0.2737025320529938,-0.100216805934906
1686053877174405600,7.463405517578125,0.06550220400094986,0.42900192737579346,-0.020559977740049362
1686053877194405600,7.483405517578125,0.07857472449541092,0.38931313157081604,-0.0740368664264679
1686053877214405600,7.503405517578125,0.2571393549442291,0.10965903848409653,-0.16484634578227997
1686053877234405600,7.523405517578125,0.3056595027446747,0.15070918202400208,-0.12630948424339294
1686053877254407200,7.5434072265625,0.22631683945655823,0.49415507912635803,-0.3089931011199951
1686053877274405600,7.563405517578125,0.22731168568134308,0.29763099551200867,-0.6875898838043213
1686053877294405600,7.583405517578125,0.1802925169467926,-0.33833208680152893,-0.8313875794410706
1686053877314405600,7.603405517578125,0.20980602502822876,-0.48172831535339355,-0.47938957810401917
1686053877334405600,7.623405517578125,0.31548571586608887,0.15798720717430115,0.15533430874347687
1686053877354405600,7.643405517578125,0.3737797141075134,0.891793429851532,0.5338613390922546
1686053877374405600,7.663405517578125,0.33107149600982666,0.9793217182159424,0.41662755608558655
1686053877394405600,7.683405517578125,0.27609363198280334,0.5673018097877502,0.032445669174194336
1686053877414405600,7.703405517578125,0.3430444598197937,0.052464596927165985,-0.29822441935539246
1686053877434405600,7.723405517578125,0.5198637843132019,-0.22502529621124268,-0.40392154455184937
1686053877454405600,7.743405517578125,0.6597344279289246,-0.17268288135528564,-0.17041394114494324
1686053877474405600,7.763405517578125,0.7197214365005493,0.0019198621157556772,0.14104005694389343
1686053877494405600,7.783405517578125,0.6888465285301208,0.09309586137533188,0.20118410885334015
1686053877514405600,7.803405517578125,0.6128374338150024,0.09372418373823166,0.04375540465116501
1686053877534405600,7.823405517578125,0.5525014400482178,0.011065387167036533,-0.17634806036949158
1686053877554405600,7.843405517578125,0.49328240752220154,-0.1391376405954361,-0.3608817160129547
1686053877574405600,7.863405517578125,0.43854889273643494,-0.182648703455925,-0.45120251178741455
1686053877594405600,7.883405517578125,0.3965911567211151,-0.2321985960006714,-0.395107626914978
1686053877614405600,7.903405517578125,0.37508872151374817,-0.23095941543579102,-0.14796900749206543
1686053877634405600,7.923405517578125,0.35899677872657776,-0.1800307184457779,0.14205235242843628
1686053877654405600,7.943405517578125,0.3357838988304138,-0.1468694508075714,0.3814068138599396
1686053877674405600,7.963405517578125,0.3110176622867584,0.00890117883682251,0.4967905282974243
1686053877694405600,7.983405517578125,0.2327047437429428,0.09197884798049927,0.483351469039917
1686053877714405600,8.003405517578125,0.11744320392608643,-0.00708603672683239,0.33405601978302
1686053877734405600,8.023405517578125,0.03364994749426842,-0.2587276101112366,0.12952087819576263
1686053877754405600,8.043405517578124,0.10779153555631638,-0.22863812744617462,0.03958406671881676
1686053877774405600,8.063405517578126,0.18017034232616425,0.20547761023044586,-0.15650367736816406
1686053877794405600,8.083405517578125,0.15903440117835999,0.15130259096622467,-0.39468875527381897
1686053877814405600,8.103405517578125,0.15749850869178772,-0.33536502718925476,-0.40627774596214294
1686053877834405600,8.123405517578124,0.2820452153682709,-0.6166946291923523,0.11398745328187943
1686053877854405600,8.143405517578126,0.4711690843105316,0.004502949304878712,0.7446621656417847
1686053877874405600,8.163405517578125,0.5241572856903076,0.6339384913444519,0.9312902092933655
1686053877894405600,8.183405517578125,0.44596654176712036,0.6886370778083801,0.5132838487625122
1686053877914405600,8.203405517578124,0.3508809804916382,0.19839157164096832,-0.20024162530899048
1686053877934405600,8.223405517578126,0.35067155957221985,-0.3088011145591736,-0.7130019068717957
1686053877954405600,8.243405517578125,0.4367162883281708,-0.4187219440937042,-0.7363369464874268
1686053877974405600,8.263405517578125,0.46151742339134216,-0.23205897212028503,-0.37887606024742126
1686053877994405600,8.283405517578124,0.38641589879989624,0.0293738916516304,0.015358896926045418
1686053878014405600,8.303405517578126,0.2321636974811554,0.19134044647216797,0.281748503446579
1686053878034405600,8.323405517578125,0.18420204520225525,0.32731905579566956,0.3525914251804352
1686053878054405600,8.343405517578125,0.25710445642471313,0.4040262699127197,0.31609657406806946
1686053878074405600,8.363405517578125,0.36445966362953186,0.4035550355911255,0.2750289738178253
1686053878094405600,8.383405517578124,0.46706756949424744,0.37917277216911316,0.11477284878492355
1686053878114405600,8.403405517578125,0.5849296450614929,0.2854486107826233,-0.116919606924057
1686053878134405600,8.423405517578125,0.6937509179115295,0.12655381858348846,-0.29359927773475647
1686053878154405600,8.443405517578125,0.7393040060997009,-0.03684389963746071,-0.3465525805950165
1686053878174405600,8.463405517578124,0.7952592968940735,-0.14533357322216034,-0.21608921885490417
1686053878194405600,8.483405517578126,0.8453851342201233,-0.06789331138134003,-0.0022165682166814804
1686053878214405600,8.503405517578125,0.8574278950691223,0.16742943227291107,0.14425146579742432
1686053878234405600,8.523405517578125,0.7983310222625732,0.31440362334251404,0.17983873188495636
1686053878254405600,8.543405517578124,0.7770555019378662,0.24937264621257782,0.10580185800790787
1686053878274405600,8.563405517578126,0.8643917441368103,0.0024085543118417263,0.003351032268255949
1686053878294405600,8.583405517578125,1.062975287437439,-0.09470156580209732,-0.02272418700158596
1686053878314405600,8.603405517578125,1.0335664749145508,0.2554638385772705,-0.0023038345389068127
1686053878334405600,8.623405517578124,0.9538922309875488,0.4263315796852112,-0.40336304903030396
1686053878354405600,8.643405517578126,0.9186540246009827,-0.22827161848545074,-0.982236385345459
1686053878374405600,8.663405517578125,0.7531793713569641,-0.8935911059379578,-1.0287842750549316
1686053878394405600,8.683405517578125,0.6095038652420044,-0.5717698335647583,-0.4973490238189697
1686053878414405600,8.703405517578124,0.6650577187538147,0.20460495352745056,0.23668409883975983
1686053878434405600,8.723405517578126,0.7672467231750488,0.7384313344955444,0.5867098569869995
1686053878454405600,8.743405517578125,0.7058460712432861,0.8133409023284912,0.3519631028175354
1686053878474405600,8.763405517578125,0.6362772583961487,0.5399175882339478,-0.2482556253671646
1686053878494405600,8.783405517578124,0.7833386659622192,0.12508775293827057,-0.6794741153717041
1686053878514405600,8.803405517578126,1.0462201833724976,-0.11763519048690796,-0.6182829141616821
1686053878534405600,8.823405517578125,1.2329354286193848,-0.09957103431224823,-0.29190632700920105
1686053878554405600,8.843405517578125,1.3348103761672974,0.025848325341939926,0.00043633230961859226
1686053878574405600,8.863405517578125,1.3214411735534668,0.22071433067321777,0.12135273963212967
1686053878594405600,8.883405517578124,1.240527629852295,0.2784498333930969,0.04014257341623306
1686053878614405600,8.903405517578125,1.216529369354248,0.2281319797039032,-0.08506734669208527
1686053878634405600,8.923405517578125,1.2530068159103394,0.1417381912469864,-0.16163493692874908
1686053878654405600,8.943405517578125,1.320167064666748,0.020315632224082947,-0.21261601150035858
1686053878674405600,8.963405517578124,1.3560335636138916,-0.09220574051141739,-0.1938537210226059
1686053878694405600,8.983405517578126,1.3481097221374512,-0.14561282098293304,-0.11915362626314163
1686053878714405600,9.003405517578125,1.2760276794433594,-0.09351474046707153,0.0027052604127675295
1686053878734405600,9.023405517578125,1.1155970096588135,-0.015463616698980331,0.15472343564033508
1686053878754405600,9.043405517578124,0.9790250062942505,0.07820820063352585,0.3358886241912842
1686053878774405600,9.063405517578126,0.9360724091529846,0.24261821806430817,0.5463578701019287
1686053878794405600,9.083405517578125,0.9316916465759277,0.3093421459197998,0.5808455944061279
1686053878814405600,9.103405517578125,0.8841314315795898,0.09210102260112762,0.4653920531272888
1686053878834405600,9.123405517578124,0.7940724492073059,-0.09583602845668793,0.3056595027446747
1686053878854405600,9.143405517578126,0.7804239988327026,-0.22650882601737976,0.2698453664779663
1686053878874405600,9.163405517578125,0.8025198578834534,-0.0062831854447722435,0.47342056035995483
1686053878894405600,9.183405517578125,0.8515287041664124,0.21050415933132172,0.6103416085243225
1686053878914405600,9.203405517578124,0.8040208220481873,0.2267182618379593,0.5279446244239807
1686053878934405600,9.223405517578126,0.7575427293777466,0.39758598804473877,0.1953023374080658
1686053878954405600,9.243405517578125,0.8092742562294006,0.26776841282844543,0.1742885857820511
1686053878974405600,9.263405517578125,0.9210975170135498,0.35990434885025024,0.40718531608581543
1686053878994405600,9.283405517578124,1.088003396987915,0.4423885941505432,0.5548227429389954
1686053879014405600,9.303405517578126,1.1323696374893188,0.5730264782905579,0.5291838049888611
1686053879034405600,9.323405517578125,1.1124205589294434,0.6243042945861816,0.3098657429218292
1686053879054405600,9.343405517578125,1.030023455619812,0.7154977321624756,0.0705811157822609
1686053879074405600,9.363405517578125,0.9696874618530273,0.859592080116272,-0.12685053050518036
1686053879094405600,9.383405517578124,0.9297892451286316,0.8960345983505249,-0.3353126645088196
1686053879114405600,9.403405517578125,0.9295449256896973,0.6783571243286133,-0.5504244565963745
1686053879134405600,9.423405517578125,0.9065937995910645,0.43385395407676697,-0.6394363045692444
1686053879154405600,9.443405517578125,0.8766090869903564,0.3184702396392822,-0.637725830078125
1686053879174405600,9.463405517578124,0.7779630422592163,0.4020715057849884,-0.5566378831863403
1686053879194405600,9.483405517578126,0.5980893969535828,0.5543863773345947,-0.48977428674697876
1686053879214405600,9.503405517578125,0.429159015417099,0.5435653328895569,-0.4467868208885193
1686053879234405600,9.523405517578125,0.3604104816913605,0.3977779746055603,-0.3323456048965454
1686053879254405600,9.543405517578124,0.33363714814186096,0.2932327687740326,-0.15709708631038666
1686053879274407200,9.5634072265625,0.30634018778800964,0.26539477705955505,-0.04804891347885132
1686053879294405600,9.583405517578125,0.26050785183906555,0.22909191250801086,-0.04731587693095207
1686053879314405600,9.603405517578125,0.18135716021060944,0.19170697033405304,-0.1422792375087738
1686053879334405600,9.623405517578124,0.07072073966264725,0.08983209729194641,-0.2476971298456192
1686053879354405600,9.643405517578126,0.021676989272236824,0.07503170520067215,-0.2958856523036957
1686053879374405600,9.663405517578125,0.007016223389655352,0.1598547101020813,-0.2301216572523117
1686053879394405600,9.683405517578125,-0.06658431142568588,0.1987580955028534,-0.13571679592132568
1686053879414405600,9.703405517578124,-0.21146409213542938,0.12836895883083344,-0.05112069472670555
1686053879434407200,9.7234072265625,-0.29855602979660034,0.006108652334660292,0.015463616698980331
1686053879454405600,9.743405517578125,-0.2869321405887604,-0.106587253510952,0.10384708642959595
1686053879474405600,9.763405517578125,-0.25471335649490356,-0.16140805184841156,0.13983577489852905
1686053879494405600,9.783405517578124,-0.28619909286499023,-0.18563321232795715,0.10854202508926392
1686053879514405600,9.803405517578126,-0.372226357460022,-0.209125354886055,0.0309621412307024
1686053879534405600,9.823405517578125,-0.4637688994407654,-0.2975088357925415,-0.04654793068766594
1686053879554405600,9.843405517578125,-0.5324475765228271,-0.4061904847621918,-0.05457644537091255
1686053879574405600,9.863405517578125,-0.5797285437583923,-0.4294382631778717,-0.0103672556579113
1686053879594405600,9.883405517578124,-0.6267826557159424,-0.36246997117996216,0.015917403623461723
1686053879614405600,9.903405517578125,-0.7051304578781128,-0.21251128613948822,0.005951572675257921
1686053879634405600,9.923405517578125,-0.7923271059989929,-0.16140805184841156,0.04417428374290466
1686053879654405600,9.943405517578125,-0.8254709243774414,-0.16086699068546295,0.12164945155382156
1686053879674405600,9.963405517578124,-0.790442168712616,-0.19196876883506775,0.1843242198228836
1686053879694405600,9.983405517578126,-0.7276277542114258,-0.16029103100299835,0.22136010229587555
1686053879714405600,10.003405517578125,-0.6701714992523193,-0.09260717034339905,0.23493877053260803
1686053879734405600,10.023405517578125,-0.6303431391716003,-0.039706241339445114,0.19512781500816345
1686053879754405600,10.043405517578124,-0.5931676030158997,-0.03160791099071503,0.12870058417320251
1686053879774407200,10.0634072265625,-0.5013109445571899,-0.05852089077234268,0.049096111208200455
1686053879794405600,10.083405517578125,-0.37261033058166504,-0.14969688653945923,-0.013631021603941917
1686053879814405600,10.103405517578125,-0.2539977729320526,-0.21265091001987457,-0.05457644537091255
1686053879834405600,10.123405517578124,-0.1713738739490509,-0.21549579501152039,-0.0898495465517044
1686053879854405600,10.143405517578126,-0.10824532061815262,-0.1584235429763794,-0.059201568365097046
1686053879874405600,10.163405517578125,-0.016109388321638107,-0.08072147518396378,0.06302383542060852
1686053879894405600,10.183405517578125,0.08049458265304565,-0.02733185514807701,0.16255997121334076
1686053879914407200,10.2034072265625,0.18093828856945038,-0.0119555052369833,0.15945327281951904
1686053879934407200,10.2234072265625,0.2844886779785156,0.017610372975468636,0.09367182105779648
1686053879954405600,10.243405517578125,0.37023669481277466,0.04726351425051689,-0.04082325100898743
1686053879974405600,10.263405517578125,0.44854962825775146,0.03822271153330803,-0.2056870460510254
1686053879994405600,10.283405517578124,0.5249077677726746,-0.05291838198900223,-0.3272841274738312
1686053880014405600,10.303405517578126,0.5771629214286804,-0.12491321563720703,-0.35044464468955994
1686053880034407200,10.3234072265625,0.623344361782074,-0.07527604699134827,-0.3070034086704254
1686053880054405600,10.343405517578125,0.6838374733924866,0.10149089246988297,-0.3255039155483246
1686053880074405600,10.363405517578125,0.7551690340042114,0.21928316354751587,-0.5020090341567993
1686053880094405600,10.383405517578124,0.7883652448654175,0.04574507847428322,-0.7293556332588196
1686053880114407200,10.4034072265625,0.7993258833885193,-0.2681872844696045,-0.8078256249427795
1686053880134407200,10.4234072265625,0.8487884998321533,-0.43048545718193054,-0.7579092383384705
1686053880154405600,10.443405517578125,0.8470432162284851,-0.31038933992385864,-0.6339210271835327
1686053880174405600,10.463405517578124,0.7302283048629761,0.021711895242333412,-0.3778114318847656
1686053880194405600,10.483405517578126,0.6028367280960083,0.32239723205566406,-0.07068583369255066
1686053880214405600,10.503405517578125,0.5618040561676025,0.4311486780643463,0.14152875542640686
1686053880234405600,10.523405517578125,0.5395510792732239,0.4588121473789215,0.20139354467391968
1686053880254405600,10.543405517578124,0.5247332453727722,0.4939979910850525,0.173939511179924
1686053880274407200,10.5634072265625,0.5329886674880981,0.5154655575752258,0.15069173276424408
1686053880294405600,10.583405517578125,0.5431638956069946,0.5290092825889587,0.11735593527555466
1686053880314405600,10.603405517578125,0.5560619235038757,0.4700869917869568,0.06513568758964539
1686053880334405600,10.623405517578124,0.5525014400482178,0.43186426162719727,0.046792276203632355
1686053880354405600,10.643405517578126,0.5365142226219177,0.4006054103374481,0.06101670861244202
1686053880374405600,10.663405517578125,0.5161985754966736,0.36131805181503296,0.10070549696683884
1686053880394405600,10.683405517578125,0.4793546795845032,0.2992890477180481,0.08271115273237228
1686053880414405600,10.703405517578124,0.4516213834285736,0.236753910779953,0.07101744413375854
1686053880434405600,10.723405517578126,0.4181983470916748,0.2226691097021103,0.09587093442678452
1686053880454405600,10.743405517578125,0.3597647249698639,0.2591988444328308,0.1313185691833496
1686053880474405600,10.763405517578125,0.2946290373802185,0.3020815849304199,0.16715018451213837
1686053880494405600,10.783405517578124,0.2312735766172409,0.25799456238746643,0.2082352340221405
1686053880514405600,10.803405517578126,0.18353882431983948,0.2376265823841095,0.21389010548591614
1686053880534405600,10.823405517578125,0.12301080673933029,0.1736777126789093,0.17016960680484772
1686053880554405600,10.843405517578125,0.06059783324599266,0.046355944126844406,0.11154399067163467
1686053880574405600,10.863405517578125,0.019949113950133324,-0.05792747810482979,0.08227481693029404
1686053880594405600,10.883405517578124,0.008639379404485226,-0.0213104709982872,0.06321582198143005
1686053880614405600,10.903405517578125,-0.030770154669880867,0.103131502866745,0.035185836255550385
1686053880634405600,10.923405517578125,-0.056007616221904755,0.15269885957241058,-0.05389576777815819
1686053880654405600,10.943405517578125,-0.052237704396247864,0.021101031452417374,-0.12058480083942413
1686053880674407200,10.9634072265625,-0.041695915162563324,-0.13182471692562103,-0.10787880420684814
1686053880694405600,10.983405517578126,-0.03220132365822792,-0.17072810232639313,-0.07801621407270432
1686053880714405600,11.003405517578125,-0.025743605569005013,0.004869468510150909,0.010663961991667747
1686053880734405600,11.023405517578125,-0.025411993265151978,0.23022638261318207,0.13810789585113525
1686053880754405600,11.043405517578124,-0.03778637945652008,0.23315852880477905,0.224065363407135
1686053880774407200,11.0634072265625,-0.0031241392716765404,0.1575334221124649,0.2215171903371811
1686053880794405600,11.083405517578125,0.07407177239656448,0.10529571026563644,0.18776251375675201
1686053880814405600,11.103405517578125,0.16638223826885223,-0.0023911010939627886,0.15741124749183655
1686053880834405600,11.123405517578124,0.22481586039066315,-0.14732323586940765,0.13660691678524017
1686053880854405600,11.143405517578126,0.24588198959827423,-0.28525662422180176,0.07887142896652222
1686053880874405600,11.163405517578125,0.22605504095554352,-0.28986427187919617,0.01696459949016571
1686053880894405600,11.183405517578125,0.17085027694702148,-0.1589471399784088,-0.010786134749650955
1686053880914405600,11.203405517578124,0.09573131054639816,-0.05780530348420143,-0.0015358896926045418
1686053880934407200,11.2234072265625,0.06864380091428757,-0.04207988828420639,-0.004066617228090763
1686053880954405600,11.243405517578125,0.05700245499610901,-0.049672070890665054,0.002949606394395232
1686053880974405600,11.263405517578125,0.02042035199701786,-0.0555887371301651,-0.006387905217707157
1686053880994405600,11.283405517578124,-0.028134707361459732,-0.0469493567943573,-0.024958208203315735
1686053881014405600,11.303405517578126,-0.06674139201641083,-0.023928463459014893,-0.032096605747938156
1686053881034405600,11.323405517578125,-0.09431759268045425,-0.031956978142261505,-0.014189526438713074
1686053881054407200,11.3434072265625,-0.12822933495044708,-0.03785619139671326,0.07616616785526276
1686053881074405600,11.363405517578125,-0.1629962921142578,-0.008377579972147942,0.18685494363307953
1686053881094405600,11.383405517578124,-0.1621759980916977,0.010437068529427052,0.25300294160842896
1686053881114405600,11.403405517578125,-0.1817062348127365,-0.015289084054529667,0.25914648175239563
1686053881134405600,11.423405517578125,-0.19024088978767395,-0.051888637244701385,0.19090411067008972
1686053881154405600,11.443405517578125,-0.18643607199192047,-0.07169812172651291,0.137654110789299
1686053881174405600,11.463405517578124,-0.1665044128894806,-0.04024729132652283,0.112922802567482
1686053881194405600,11.483405517578126,-0.1598547101020813,-0.020088739693164825,0.08040732145309448
1686053881214405600,11.503405517578125,-0.18469074368476868,-0.005881759338080883,0.027296949177980423
1686053881234405600,11.523405517578125,-0.21708405017852783,0.02528982050716877,-0.002024581888690591
1686053881254407200,11.5434072265625,-0.217136412858963,0.058171823620796204,-0.03626793995499611
1686053881274407200,11.5634072265625,-0.19994491338729858,0.012147491797804832,-0.07040657848119736
1686053881294405600,11.583405517578125,-0.15692254900932312,-0.06784094870090485,-0.09032078832387924
1686053881314405600,11.603405517578125,-0.10222393274307251,-0.1189616397023201,-0.10388199985027313
1686053881334405600,11.623405517578124,-0.0780685767531395,-0.17697638273239136,-0.18875735998153687
1686053881354405600,11.643405517578126,-0.13744467496871948,-0.24153611063957214,-0.31463050842285156
1686053881374405600,11.663405517578125,-0.21483257412910461,-0.24982643127441406,-0.4035201072692871
1686053881394407200,11.6834072265625,-0.22675317525863647,-0.14580480754375458,-0.3813718855381012
1686053881414405600,11.703405517578124,-0.1624726951122284,0.04914847016334534,-0.23006929457187653
1686053881434405600,11.723405517578126,-0.09550441801548004,0.14779448509216309,-0.01401499379426241
1686053881454405600,11.743405517578125,-0.0792030394077301,0.1941504180431366,0.0696909949183464
1686053881474405600,11.763405517578125,-0.10705849528312683,0.1520530879497528,-0.06000442057847977
1686053881494405600,11.783405517578124,-0.17411404848098755,-0.01171115878969431,-0.25710445642471313
1686053881514405600,11.803405517578126,-0.24499186873435974,-0.2231927067041397,-0.3681073784828186
1686053881534405600,11.823405517578125,-0.28063148260116577,-0.26450464129447937,-0.350828617811203
1686053881554405600,11.843405517578125,-0.2621135413646698,-0.1644274741411209,-0.2528807520866394
1686053881574405600,11.863405517578125,-0.24029693007469177,-0.042324233800172806,-0.16439256072044373
1686053881594405600,11.883405517578124,-0.2206096202135086,0.0671079084277153,-0.08922123163938522
1686053881614405600,11.903405517578125,-0.17477726936340332,0.09747663885354996,-0.04167846217751503
1686053881634405600,11.923405517578125,-0.14983651041984558,-0.0205948855727911,-0.07319910824298859
1686053881654405600,11.943405517578125,-0.12034045159816742,-0.17671458423137665,-0.18589501082897186
1686053881674405600,11.963405517578124,-0.08616690337657928,-0.28324949741363525,-0.2428276538848877
1686053881694405600,11.983405517578126,-0.05794493108987808,-0.2586927115917206,-0.21996384859085083
1686053881714405600,12.003405517578125,-0.0357094369828701,-0.18798941373825073,-0.17521360516548157
1686053881734405600,12.023405517578125,0.008429939858615398,-0.11028735339641571,-0.11330677568912506
1686053881754405600,12.043405517578124,0.049986228346824646,-0.00024434609804302454,-0.036128316074609756
1686053881774405600,12.063405517578126,0.05625196173787117,0.030839968472719193,-0.007016223389655352
1686053881794405600,12.083405517578125,0.06359979510307312,-0.012252211570739746,-0.04729842394590378
1686053881814405600,12.103405517578125,0.05942846089601517,-0.05605997517704964,-0.07222172617912292
1686053881834405600,12.123405517578124,0.05785766616463661,-0.07621853053569794,-0.08953539282083511
1686053881854405600,12.143405517578126,0.07105235010385513,-0.042725659906864166,-0.06640977412462234
1686053881874405600,12.163405517578125,0.09833184629678726,-0.004293509759008884,-0.020612338557839394
1686053881894405600,12.183405517578125,0.11601203680038452,0.0033684854861348867,-0.02200860157608986
1686053881914405600,12.203405517578124,0.11390018463134766,-0.02604031190276146,-0.06236061453819275
1686053881934405600,12.223405517578126,0.09690067917108536,-0.07454301416873932,-0.11625637859106064
1686053881954405600,12.243405517578125,0.08852309733629227,-0.08960520476102829,-0.11423180252313614
1686053881974405600,12.263405517578125,0.1034107580780983,-0.10304424166679382,-0.04495968297123909
1686053881994405600,12.283405517578124,0.10560987144708633,-0.16290903091430664,-0.032445669174194336
1686053882014405600,12.303405517578126,0.07974409312009811,-0.25968754291534424,-0.10302678495645523
1686053882034405600,12.323405517578125,0.04879940673708916,-0.2885727286338806,-0.21594959497451782
1686053882054405600,12.343405517578125,0.003001966280862689,-0.24130922555923462,-0.29829421639442444
1686053882074405600,12.363405517578125,-0.025359634310007095,-0.19746655225753784,-0.2983989417552948
1686053882094405600,12.383405517578124,-0.030630528926849365,-0.1269901543855667,-0.15966272354125977
1686053882114405600,12.403405517578125,-0.0073303827084600925,-0.008412486873567104,-0.01335176918655634
1686053882134405600,12.423405517578125,0.006998770404607058,0.06627015024423599,0.06513568758964539
1686053882154405600,12.443405517578125,-0.010314895771443844,0.04429645463824272,0.0293738916516304
1686053882174405600,12.463405517578124,-0.03764675185084343,-0.0031241392716765404,-0.05581562966108322
1686053882194405600,12.483405517578126,-0.06204645335674286,-0.03717551380395889,-0.05372123420238495
1686053882214405600,12.503405517578125,-0.0665494054555893,-0.012077677994966507,0.01918116770684719
1686053882234405600,12.523405517578125,-0.10416124761104584,0.007592182140797377,0.05768313258886337
1686053882254405600,12.543405517578124,-0.16135568916797638,0.02649409882724285,0.041172318160533905
1686053882274407200,12.5634072265625,-0.16208872199058533,0.008325220085680485,-0.009878563694655895
1686053882294407200,12.5834072265625,-0.15683528780937195,-0.034749504178762436,-0.041119955480098724
1686053882314405600,12.603405517578125,-0.13660691678524017,-0.012304571457207203,-0.03787364438176155
1686053882334405600,12.623405517578124,-0.11416198313236237,-0.0011519172694534063,-0.0142593402415514
1686053882354405600,12.643405517578126,-0.11239920556545258,-0.014381512999534607,-0.026965336874127388
1686053882374405600,12.663405517578125,-0.09480628371238708,-0.0033859387040138245,-0.0316777266561985
1686053882394405600,12.683405517578125,-0.027977628633379936,0.12246975302696228,-0.014800392091274261
1686053882414405600,12.703405517578124,0.025883233174681664,0.22621212899684906,0.04640830308198929
1686053882434405600,12.723405517578126,0.09602801501750946,0.1650383323431015,0.0840899646282196
1686053882454405600,12.743405517578125,-0.21034708619117737,0.4505043923854828,0.049584802240133286
1686053882474405600,12.763405517578125,-0.3219434320926666,0.5630432367324829,-0.039706241339445114
1686053882494405600,12.783405517578124,-0.3505842983722687,0.3680375814437866,-0.09773843735456467
1686053882514405600,12.803405517578126,-0.31466540694236755,0.24347342550754547,-0.08838347345590591
1686053882534405600,12.823405517578125,-0.1946914792060852,0.2122844010591507,-0.07379251718521118
1686053882554405600,12.843405517578125,-0.0702844113111496,0.18510961532592773,0.04881685972213745
1686053882574405600,12.863405517578125,-0.06639232486486435,0.04150392860174179,0.15529939532279968
1686053882594405600,12.883405517578124,-0.10252063721418381,-0.030421089380979538,0.11152654141187668
1686053882614405600,12.903405517578125,-0.12993976473808289,-0.09471901506185532,0.013805554248392582
1686053882634405600,12.923405517578125,-0.11383037269115448,-0.09578366577625275,-0.022252947092056274
1686053882654405600,12.943405517578125,-0.044715333729982376,-0.12880529463291168,0.0031590459402650595
1686053882674405600,12.963405517578124,0.0005235987482592463,-0.14072589576244354,0.049410272389650345
1686053882694405600,12.983405517578126,0.04092797264456749,-0.11955505609512329,0.06742206960916519
1686053882714405600,13.003405517578125,0.06258750706911087,-0.08824384957551956,0.04818854108452797
1686053882734405600,13.023405517578125,0.05466371029615402,-0.09487609565258026,0.01673770695924759
1686053882754405600,13.043405517578124,0.0518537312746048,-0.07211700081825256,-0.02024581842124462
1686053882774407200,13.0634072265625,0.05738642439246178,-0.04433136433362961,0.004310963209718466
1686053882794405600,13.083405517578125,0.07986626774072647,-0.015917403623461723,0.05124286562204361
1686053882814405600,13.103405517578125,0.09770353138446808,0.016179202124476433,0.08424704521894455
1686053882834405600,13.123405517578124,0.086969755589962,-0.012339477427303791,0.07333873212337494
1686053882854405600,13.143405517578126,0.11910127103328705,0.015376350842416286,0.023090705275535583
1686053882874405600,13.163405517578125,0.135402649641037,-0.02967059798538685,-0.026686083525419235
1686053882894405600,13.183405517578125,0.1241452693939209,-0.06363470107316971,-0.032934363931417465
1686053882914405600,13.203405517578124,0.11026990413665771,-0.028326693922281265,-0.00013962633966002613
1686053882934405600,13.223405517578126,0.09114108979701996,0.024382250383496284,0.05633922666311264
1686053882954405600,13.243405517578125,0.09627236425876617,0.07065092772245407,0.0737401619553566
1686053882974405600,13.263405517578125,0.10573204606771469,0.09552186727523804,0.049986228346824646
1686053882994405600,13.283405517578124,0.11829841881990433,0.05234242230653763,0.022427480667829514
1686053883014405600,13.303405517578126,0.13437290489673615,-0.005096361506730318,-0.004258603323251009
1686053883034405600,13.323405517578125,0.15189599990844727,-0.003630284918472171,0.0017802357906475663
1686053883054405600,13.343405517578125,0.18535396456718445,0.03200933709740639,0.025010569021105766
1686053883074405600,13.363405517578125,0.1984439343214035,0.06080726906657219,0.024905849248170853
1686053883094405600,13.383405517578124,0.19624482095241547,0.01160643994808197,-0.023020893335342407
1686053883114405600,13.403405517578125,0.17547540366649628,-0.03560471534729004,-0.07665485888719559
1686053883134405600,13.423405517578125,0.160133957862854,-0.04518657550215721,-0.0884183794260025
1686053883154405600,13.443405517578125,0.14713124930858612,-0.028291787952184677,-0.06991788744926453
1686053883174405600,13.463405517578124,0.12999212741851807,-0.00808087456971407,-0.01731366664171219
1686053883194405600,13.483405517578126,0.10040879249572754,0.0119555052369833,0.003176499158143997
1686053883214405600,13.503405517578125,0.05380849912762642,0.02197369560599327,-0.005410520825535059
1686053883234405600,13.523405517578125,0.021415190771222115,0.012810716405510902,-0.022200588136911392
1686053883254407200,13.5434072265625,-0.0008028514566831291,-0.00008726646046852693,-0.022846359759569168
1686053883274405600,13.563405517578126,-0.03157300502061844,0.006946410518139601,-0.02502802200615406
1686053883294405600,13.583405517578125,-0.049584802240133286,0.009337511844933033,-0.016441000625491142
1686053883314405600,13.603405517578125,-0.06131341680884361,0.0165631752461195,-0.010279988870024681
1686053883334405600,13.623405517578124,-0.08998917788267136,0.0012042771559208632,0.0008552113431505859
1686053883354405600,13.643405517578126,-0.14098769426345825,-0.015795229002833366,0.03029891662299633
1686053883374405600,13.663405517578125,-0.1903805136680603,0.013247049413621426,0.06543239206075668
1686053883394405600,13.683405517578125,-0.21366320550441742,0.059149209409952164,0.10121164470911026
1686053883414405600,13.703405517578124,-0.23921482264995575,0.09028588235378265,0.10344566404819489
1686053883434405600,13.723405517578126,-0.2617644667625427,0.09738937020301819,0.07009242475032806
1686053883454405600,13.743405517578125,-0.2549402415752411,0.06236061453819275,0.06400122493505478
1686053883474405600,13.763405517578125,-0.21877701580524445,0.042062435299158096,0.09009389579296112
1686053883494405600,13.783405517578124,-0.18308503925800323,0.05708971992135048,0.10131636261940002
1686053883514405600,13.803405517578126,-0.15707963705062866,0.050597093999385834,0.07138396799564362
1686053883534405600,13.823405517578125,-0.12608258426189423,0.03347541391849518,0.030543262138962746
1686053883554405600,13.843405517578125,-0.10356783866882324,-0.0008726646192371845,-0.0009250245057046413
1686053883574405600,13.863405517578125,-0.09068730473518372,-0.02755874954164028,-0.017575465142726898
1686053883594405600,13.883405517578124,-0.06253514438867569,0.02457423508167267,-0.0005410520825535059
1686053883614405600,13.903405517578125,-0.019320795312523842,0.03490658476948738,0.03145083412528038
1686053883634405600,13.923405517578125,0.022026054561138153,-0.019320795312523842,0.024696409702301025
1686053883654405600,13.943405517578125,0.04115486517548561,-0.06209881603717804,0.015777776017785072
1686053883674405600,13.963405517578124,0.04270820692181587,-0.0547160729765892,0.012130037881433964
1686053883694405600,13.983405517578126,0.04000294581055641,-0.031520646065473557,0.022340213879942894
1686053883714405600,14.003405517578125,0.036739181727170944,-0.00823795422911644,0.030979594215750694
1686053883734405600,14.023405517578125,0.042359139770269394,-0.008656833320856094,0.021467549726366997
1686053883754407200,14.0434072265625,0.04899139329791069,-0.024836035445332527,0.004171337001025677
1686053883774407200,14.0634072265625,0.04773475602269173,-0.06578145921230316,-0.006684611085802317
1686053883794405600,14.083405517578125,0.041608650237321854,-0.05085889250040054,0.01780235767364502
1686053883814407200,14.1034072265625,0.052290063351392746,-0.0645073652267456,0.030351275578141212
1686053883834405600,14.123405517578124,0.022218041121959686,-0.06349507719278336,0.030351275578141212
1686053883854405600,14.143405517578126,0.010506882332265377,-0.05808455869555473,0.021799162030220032
1686053883874405600,14.163405517578125,0.0061610122211277485,-0.04651302471756935,0.044313911348581314
1686053883894405600,14.183405517578125,0.00923279207199812,-0.05284857004880905,0.04476769641041756
1686053883914405600,14.203405517578124,0.0008203047327697277,-0.06812020391225815,0.049672070890665054
1686053883934405600,14.223405517578126,-0.005201081279665232,-0.0547160729765892,0.04251622036099434
1686053883954407200,14.2434072265625,-0.0011693706037476659,-0.026424285024404526,0.03127630054950714
1686053883974405600,14.263405517578125,-0.00905825849622488,-0.03272492438554764,0.033108897507190704
1686053883994405600,14.283405517578124,0.0029321531765162945,-0.04419173672795296,0.055292028933763504
1686053884014405600,14.303405517578126,0.018971728160977364,-0.009023352526128292,0.0892910435795784
1686053884034407200,14.3234072265625,0.023893557488918304,0.028902651742100716,0.0918915867805481
1686053884054405600,14.343405517578125,0.027872908860445023,0.0832347497344017,0.04775220900774002
1686053884074407200,14.3634072265625,0.03923500329256058,0.08850564807653427,-0.019600046798586845
1686053884094405600,14.383405517578124,0.05003859102725983,0.058224182575941086,-0.06133086979389191
1686053884114405600,14.403405517578125,0.051539573818445206,0.041748274117708206,-0.0702844113111496
1686053884134405600,14.423405517578125,0.053564153611660004,0.034033920615911484,-0.05475097894668579
1686053884154405600,14.443405517578125,0.06703809648752213,0.02117084339261055,-0.025481807067990303
1686053884174405600,14.463405517578124,0.04899139329791069,0.04260348528623581,-0.02373647689819336
1686053884194405600,14.483405517578126,0.017592918127775192,0.025534166023135185,-0.008936085738241673
1686053884214405600,14.503405517578125,-0.006126105785369873,-0.010437068529427052,0.0018325956771150231
1686053884234405600,14.523405517578125,-0.021868975833058357,-0.011030481196939945,0.00663225119933486
1686053884254405600,14.543405517578124,-0.03782128542661667,-0.004764748737215996,0.024748768657445908
1686053884274405600,14.563405517578126,-0.05651376023888588,0.005515240598469973,0.042271874845027924
1686053884294405600,14.583405517578125,-0.06230825558304787,-0.0010122909443452954,0.013945180922746658
1686053884314405600,14.603405517578125,-0.04811872914433479,-0.04230678081512451,-0.0015882495790719986
1686053884334405600,14.623405517578124,-0.021118484437465668,-0.1045626774430275,0.015760323032736778
1686053884354405600,14.643405517578126,0.00855211354792118,-0.13877113163471222,0.07888887822628021
1686053884374405600,14.663405517578125,0.0190066359937191,-0.11047933995723724,0.11192796379327774
1686053884394405600,14.683405517578125,0.018448129296302795,-0.09386380761861801,0.10971139371395111
1686053884414405600,14.703405517578124,0.0068765971809625626,-0.07637561112642288,0.07745771110057831
1686053884434405600,14.723405517578126,-0.007208209950476885,-0.03539527580142021,0.04991641640663147
1686053884454405600,14.743405517578125,-0.013508847914636135,-0.01633628085255623,0.05354670062661171
1686053884474407200,14.7634072265625,-0.013212142512202263,0.02528982050716877,0.060213860124349594
1686053884494405600,14.783405517578124,-0.031381018459796906,0.07363544404506683,0.07311183959245682
1686053884514405600,14.803405517578126,-0.02572615258395672,0.09845402091741562,0.05394812673330307
1686053884534405600,14.823405517578125,-0.012915436178445816,0.04286528751254082,0.03436553105711937
1686053884554405600,14.843405517578125,-0.0014137167017906904,0.0475253164768219,0.0076445420272648335
1686053884574405600,14.863405517578125,0.0004886921960860491,0.06340780854225159,0.00839503388851881
1686053884594405600,14.883405517578124,0.024155355989933014,0.08880235254764557,-0.008970992639660835
1686053884614405600,14.903405517578125,0.05412266030907631,0.10470230132341385,-0.027401668950915337
1686053884634465000,14.923465087890625,0.06921976059675217,0.07103490084409714,-0.0391826406121254
1686053884654405600,14.943405517578125,0.08895943313837051,0.0161268413066864,-0.053127821534872055
1686053884674405600,14.963405517578124,0.12056734412908554,-0.0014660765882581472,-0.04057890549302101
1686053884694405600,14.983405517578126,0.1388060301542282,-0.004502949304878712,0.005829399451613426
1686053884714405600,15.003405517578125,0.14767231047153473,0.022200588136911392,0.022514747455716133
1686053884734405600,15.023405517578125,0.14042918384075165,0.09670869261026382,-0.007260569836944342
1686053884754405600,15.043405517578124,0.14770720899105072,0.10740756243467331,-0.04392993822693825
1686053884774405600,15.063405517578126,0.14622367918491364,0.07241371273994446,-0.04412192478775978
1686053884794405600,15.083405517578125,0.15591026842594147,0.041695915162563324,-0.0553094856441021
1686053884814405600,15.103405517578125,0.17704619467258453,0.06229080259799957,-0.0446455217897892
1686053884834405600,15.123405517578124,0.18744836747646332,0.12770573794841766,-0.07183775305747986
1686053884854405600,15.143405517578126,0.17722073197364807,0.14329153299331665,-0.11585495620965958
1686053884874405600,15.163405517578125,0.18130479753017426,0.0921708345413208,-0.13789846003055573
1686053884894405600,15.183405517578125,0.22212804853916168,0.017784904688596725,-0.13110913336277008
1686053884914405600,15.203405517578124,0.27295204997062683,0.030839968472719193,-0.09939649701118469
1686053884934405600,15.223405517578126,0.2872462868690491,0.1330988109111786,-0.08745844662189484
1686053884954405600,15.243405517578125,0.23144811391830444,0.1998751014471054,-0.10260790586471558
1686053884974405600,15.263405517578125,0.18673276901245117,0.10054841637611389,-0.18369589745998383
1686053884994405600,15.283405517578124,0.21385519206523895,-0.06672393530607224,-0.21820105612277985
1686053885014405600,15.303405517578126,0.27176520228385925,-0.10222393274307251,-0.09091419726610184
1686053885034405600,15.323405517578125,0.27284732460975647,0.03848451003432274,0.036023594439029694
1686053885054405600,15.343405517578125,0.20271998643875122,0.21120229363441467,0.0714363232254982
1686053885074405600,15.363405517578125,0.1428202986717224,0.1802750527858734,-0.04525638744235039
1686053885094405600,15.383405517578124,0.13781119883060455,-0.12430234998464584,-0.12908455729484558
1686053885114405600,15.403405517578125,0.22619466483592987,-0.28005552291870117,-0.10835003852844238
1686053885134405600,15.423405517578125,0.2899864614009857,-0.22286109626293182,-0.016807520762085915
1686053885154405600,15.443405517578125,0.26024603843688965,-0.013945180922746658,0.05670574679970741
1686053885174405600,15.463405517578124,0.14512412250041962,0.20453514158725739,0.05466371029615402
1686053885194405600,15.483405517578126,0.06579891592264175,0.18744836747646332,-0.07408922910690308
1686053885214405600,15.503405517578125,0.10229374468326569,-0.07197737693786621,-0.14423400163650513
1686053885234405600,15.523405517578125,0.222930908203125,-0.2684839963912964,-0.11107275635004044
1686053885254405600,15.543405517578124,0.32534682750701904,-0.1319294422864914,-0.12411036342382431
1686053885274405600,15.563405517578126,0.3444930911064148,0.159016951918602,-0.19690804183483124
1686053885294405600,15.583405517578125,0.286897212266922,0.14734070003032684,-0.23088960349559784
1686053885314405600,15.603405517578125,0.2636145353317261,-0.0705462098121643,-0.1733984649181366
1686053885334405600,15.623405517578124,0.299550861120224,-0.1681973785161972,-0.003804817795753479
1686053885354405600,15.643405517578126,0.33653438091278076,-0.09960594028234482,0.020053833723068237
1686053885374405600,15.663405517578125,0.30920252203941345,-0.08211774379014969,-0.0910189226269722
1686053885394405600,15.683405517578125,0.2491632103919983,-0.12348204106092453,-0.18221236765384674
1686053885414405600,15.703405517578124,0.21741566061973572,-0.1448448747396469,-0.15137240290641785
1686053885434405600,15.723405517578126,0.21732839941978455,-0.11613421142101288,-0.03893829509615898
1686053885454405600,15.743405517578125,0.2286904901266098,-0.0682772770524025,0.052324969321489334
1686053885474405600,15.763405517578125,0.2500358819961548,-0.07276277989149094,0.03839724510908127
1686053885494405600,15.783405517578124,0.2643824815750122,-0.09028588235378265,-0.01748819835484028
1686053885514405600,15.803405517578126,0.26310837268829346,-0.07993607968091965,-0.06007423251867294
1686053885534405600,15.823405517578125,0.2520953416824341,-0.033126350492239,-0.07131415605545044
1686053885554405600,15.843405517578125,0.24841271340847015,0.06555456668138504,-0.06949900835752487
1686053885574405600,15.863405517578125,0.2758667469024658,0.12796753644943237,-0.06377433240413666
1686053885594405600,15.883405517578124,0.3007027804851532,0.09588839113712311,-0.07080800831317902
1686053885614405600,15.903405517578125,0.33489376306533813,0.048659779131412506,-0.0823795422911644
1686053885634405600,15.923405517578125,0.3557679057121277,0.08194320648908615,-0.13028882443904877
1686053885654405600,15.943405517578125,0.36301103234291077,0.0987856388092041,-0.1894903928041458
1686053885674405600,15.963405517578124,0.377270370721817,0.106011301279068,-0.19380135834217072
1686053885694407200,15.9834072265625,0.39238491654396057,0.07208209484815598,-0.11934561282396317
1686053885714407200,16.0034072265625,0.4098207652568817,0.06291911751031876,-0.060528017580509186
1686053885734405600,16.023405517578126,0.4207465350627899,0.10107201337814331,-0.07237880676984787
1686053885754405600,16.043405517578126,0.4288623034954071,0.11583749949932098,-0.1255938857793808
1686053885774405600,16.063405517578126,0.4530002176761627,0.11758282780647278,-0.16435766220092773
1686053885794405600,16.083405517578125,0.49462631344795227,0.14090043306350708,-0.14953981339931488
1686053885814405600,16.103405517578125,0.5232671499252319,0.14011503756046295,-0.14393730461597443
1686053885834405600,16.123405517578124,0.5180486440658569,0.15144221484661102,-0.1399928629398346
1686053885854405600,16.143405517578124,0.5042081475257874,0.21123719215393066,-0.11253882944583893
1686053885874405600,16.163405517578123,0.49705231189727783,0.26865851879119873,-0.130742609500885
1686053885894405600,16.183405517578127,0.5076115727424622,0.2111324816942215,-0.22713714838027954
1686053885914405600,16.203405517578126,0.5024977326393127,0.11842058598995209,-0.3226066529750824
1686053885934405600,16.223405517578126,0.48228684067726135,0.04098033159971237,-0.3899414539337158
1686053885954405600,16.243405517578125,0.4622679054737091,-0.004886921960860491,-0.37262779474258423
1686053885974407200,16.2634072265625,0.41207224130630493,-0.01211258489638567,-0.28616419434547424
1686053885994405600,16.283405517578124,0.3413864076137543,0.01457349956035614,-0.2546784579753876
1686053886014405600,16.303405517578124,0.29157471656799316,0.027174776419997215,-0.3038269281387329
1686053886034405600,16.323405517578124,0.2660579979419708,0.0013613568153232336,-0.3363947570323944
1686053886054407200,16.3434072265625,0.22392573952674866,0.022270401939749718,-0.3436553180217743
1686053886074405600,16.363405517578126,0.16194909811019897,0.07349581271409988,-0.331822007894516
1686053886094405600,16.383405517578126,0.12512265145778656,0.0604931116104126,-0.2745053768157959
1686053886114405600,16.403405517578125,0.06384414434432983,0.010716321878135204,-0.21153390407562256
1686053886134405600,16.423405517578125,-0.015620696358382702,0.039706241339445114,-0.136502206325531
1686053886154405600,16.443405517578125,-0.07895869761705399,0.09983283281326294,-0.05921902135014534
1686053886174405600,16.463405517578124,-0.11473794281482697,0.17334610223770142,-0.00815068744122982
1686053886194405600,16.483405517578124,-0.1552295833826065,0.1209862232208252,-0.005550147034227848
1686053886214405600,16.503405517578123,-0.19518016278743744,0.09351474046707153,-0.034121185541152954
1686053886234405600,16.523405517578126,-0.21842795610427856,0.07578219473361969,-0.06618288159370422
1686053886254405600,16.543405517578126,-0.25703462958335876,0.019216075539588928,-0.0024260077625513077
1686053886274405600,16.563405517578126,-0.3033382296562195,0.015620696358382702,0.0843866690993309
1686053886294405600,16.583405517578125,-0.34288737177848816,0.006248278543353081,0.12253956496715546
1686053886314405600,16.603405517578125,-0.3737971782684326,-0.06632251292467117,0.1209862232208252
1686053886334405600,16.623405517578124,-0.39650389552116394,-0.13119639456272125,0.11814133822917938
1686053886354405600,16.643405517578124,-0.4297000467777252,-0.1843242198228836,0.14175564050674438
1686053886374405600,16.663405517578123,-0.49954813718795776,-0.18880972266197205,0.16282176971435547
1686053886394405600,16.683405517578127,-0.5687329769134521,-0.20666444301605225,0.18299777805805206
1686053886414405600,16.703405517578126,-0.6162233948707581,-0.20952677726745605,0.19292870163917542
1686053886434405600,16.723405517578126,-0.6114062666893005,-0.2266484498977661,0.12842132151126862
1686053886454405600,16.743405517578125,-0.6050881743431091,-0.3188891112804413,0.03785619139671326
1686053886474405600,16.763405517578125,-0.6052103638648987,-0.34285247325897217,-0.00724311638623476
1686053886494405600,16.783405517578124,-0.6267826557159424,-0.20093975961208344,-0.009861109778285027
1686053886514405600,16.803405517578124,-0.6913772821426392,-0.06649704277515411,-0.0057072266936302185
1686053886534405600,16.823405517578124,-0.7417474985122681,0.0040317103266716,-0.022357666864991188
1686053886554405600,16.843405517578127,-0.7598639726638794,0.10337585210800171,-0.00062831852119416
1686053886574405600,16.863405517578126,-0.713630199432373,0.2477145791053772,0.023527037352323532
1686053886594405600,16.883405517578126,-0.6502224206924438,0.28616419434547424,0.11110766232013702
1686053886614405600,16.903405517578125,-0.5858546495437622,0.20928242802619934,0.255202054977417
1686053886634405600,16.923405517578125,-0.5265483856201172,0.08635888993740082,0.2998475730419159
1686053886654405600,16.943405517578125,-0.5280842781066895,-0.045326199382543564,0.2295631617307663
1686053886674405600,16.963405517578124,-0.5456597208976746,-0.06639232486486435,0.15889477729797363
1686053886694405600,16.983405517578124,-0.5629035830497742,-0.014294246211647987,0.18788468837738037
1686053886714405600,17.003405517578123,-0.5447521805763245,0.050649452954530716,0.2735803723335266
1686053886734405600,17.023405517578126,-0.5101422667503357,0.07365289330482483,0.34688419103622437
1686053886754405600,17.043405517578126,-0.484451025724411,0.011065387167036533,0.37163296341896057
1686053886774405600,17.063405517578126,-0.44521602988243103,-0.04717624932527542,0.3642676770687103
1686053886794405600,17.083405517578125,-0.40540507435798645,-0.024172810837626457,0.33822736144065857
1686053886814405600,17.103405517578125,-0.35438910126686096,0.009529497474431992,0.3027797043323517
1686053886834405600,17.123405517578124,-0.3000395596027374,0.048520151525735855,0.2879618704319
1686053886854405600,17.143405517578124,-0.2330189049243927,0.055833082646131516,0.28384289145469666
1686053886874405600,17.163405517578123,-0.17591173946857452,0.008970992639660835,0.27178266644477844
1686053886894405600,17.183405517578127,-0.11650072783231735,-0.11887437850236893,0.20209167897701263
1686053886914405600,17.203405517578126,-0.054908059537410736,-0.2013586312532425,0.14844025671482086
1686053886934405600,17.223405517578126,0.006021386012434959,-0.19348719716072083,0.11932816356420517
1686053886954405600,17.243405517578125,0.024870941415429115,-0.1100430116057396,0.0760265439748764
1686053886974405600,17.263405517578125,0.005986479111015797,-0.06094689667224884,0.0029321531765162945
1686053886994405600,17.283405517578124,-0.011641345918178558,-0.05637413635849953,-0.04228932783007622
1686053887014405600,17.303405517578124,-0.00502654816955328,-0.09028588235378265,-0.08173377066850662
1686053887034405600,17.323405517578124,0.030979594215750694,-0.1431868076324463,-0.14093533158302307
1686053887054405600,17.343405517578127,0.07557275891304016,-0.15892967581748962,-0.15577062964439392
1686053887074405600,17.363405517578126,0.08304276317358017,-0.14210470020771027,-0.15762068331241608
1686053887094405600,17.383405517578126,0.051801372319459915,-0.11468558758497238,-0.11889182776212692
1686053887114405600,17.403405517578125,0.02998475730419159,-0.03246312215924263,-0.05234242230653763
1686053887134405600,17.423405517578125,0.03741985931992531,0.12397073954343796,0.07293730974197388
1686053887154405600,17.443405517578125,0.05838126316666603,0.2140297293663025,0.16064010560512543
1686053887174405600,17.463405517578124,0.0694117471575737,0.13552480936050415,0.1466425657272339
1686053887194405600,17.483405517578124,0.06054547056555748,0.07993607968091965,0.010821041651070118
1686053887214405600,17.503405517578123,0.042324233800172806,0.08573057502508163,-0.12712977826595306
1686053887234405600,17.523405517578126,0.06986553221940994,0.06921976059675217,-0.13957397639751434
1686053887254405600,17.543405517578126,0.13660691678524017,-0.01029744278639555,-0.0014137167017906904
1686053887274405600,17.563405517578126,0.1598721593618393,-0.022043507546186447,0.11473794281482697
1686053887294405600,17.583405517578125,0.1552470326423645,0.030106930062174797,0.1702568680047989
1686053887314405600,17.603405517578125,0.1664694994688034,0.004398229531943798,0.2007477730512619
1686053887334405600,17.623405517578124,0.19774580001831055,-0.0066147977486252785,0.1719672977924347
1686053887354405600,17.643405517578124,0.24675464630126953,0.0159872155636549,0.11444123834371567
1686053887374405600,17.663405517578123,0.30255281925201416,0.029391344636678696,0.1215621829032898
1686053887394405600,17.683405517578127,0.37168532609939575,0.04872959107160568,0.1471487134695053
1686053887414405600,17.703405517578126,0.4343600869178772,0.060964349657297134,0.12262683361768723
1686053887434405600,17.723405517578126,0.48544588685035706,0.04225442185997963,0.031084313988685608
1686053887454405600,17.743405517578125,0.5200033783912659,0.012147491797804832,-0.027872908860445023
1686053887474405600,17.763405517578125,0.5653994083404541,0.017872171476483345,-0.018901916220784187
1686053887494405600,17.783405517578124,0.6359805464744568,0.033196162432432175,0.02050761878490448
1686053887514405600,17.803405517578124,0.7035596966743469,0.062430426478385925,0.02321287989616394
1686053887534405600,17.823405517578124,0.7562336921691895,0.03392919898033142,-0.020176006481051445
1686053887554405600,17.843405517578127,0.7975282073020935,0.005689773242920637,-0.03228859230875969
1686053887574405600,17.863405517578126,0.8326442241668701,0.020315632224082947,-0.01909390278160572
1686053887594405600,17.883405517578126,0.852698028087616,0.0013089969288557768,-0.025446901097893715
1686053887614405600,17.903405517578125,0.869976818561554,0.01926843449473381,-0.01864011585712433
1686053887634405600,17.923405517578125,0.9018639922142029,0.03640756756067276,0.013508847914636135
1686053887654405600,17.943405517578125,0.9497557878494263,0.06606071442365646,0.07367035001516342
1686053887674405600,17.963405517578124,0.9686228036880493,0.07009242475032806,0.11594222486019135
1686053887694405600,17.983405517578124,0.980351448059082,0.07826056331396103,0.11590731889009476
1686053887714405600,18.003405517578123,1.0004576444625854,0.06780604273080826,0.1414065808057785
1686053887734405600,18.023405517578126,1.0508452653884888,0.057473693042993546,0.1776919662952423
1686053887754405600,18.043405517578126,1.085716962814331,0.04773475602269173,0.1592961996793747
1686053887774405600,18.063405517578126,1.123747706413269,0.029932396486401558,0.10299187898635864
1686053887794405600,18.083405517578125,1.1836473941802979,0.012391837313771248,0.07880161702632904
1686053887814405600,18.103405517578125,1.2575620412826538,0.02254965342581272,0.09019861370325089
1686053887834405600,18.123405517578124,1.3065185546875,0.06899286806583405,0.11475539952516556
1686053887854405600,18.143405517578124,1.328736662864685,0.1316501796245575,0.11531390249729156
1686053887874405600,18.163405517578123,1.321510910987854,0.20950932800769806,0.08609709143638611
1686053887894405600,18.183405517578127,1.357953429222107,0.20607101917266846,0.00823795422911644
1686053887914405600,18.203405517578126,1.4256547689437866,0.10466739535331726,-0.04982915148139
1686053887934405600,18.223405517578126,1.4694101810455322,0.04016002640128136,-0.10164797306060791
1686053887954405600,18.243405517578125,1.5349822044372559,-0.002600540639832616,-0.038117989897727966
1686053887974405600,18.263405517578125,1.5713024139404297,0.0020769417751580477,-0.04187044873833656
1686053887994405600,18.283405517578124,1.5445116758346558,0.05309291556477547,-0.061802107840776443
1686053888014405600,18.303405517578124,1.5305839776992798,0.1374272257089615,-0.13917255401611328
1686053888034405600,18.323405517578124,1.5794183015823364,0.12510520219802856,-0.14685200154781342
1686053888054405600,18.343405517578127,1.6568585634231567,0.06983062624931335,-0.10683160275220871
1686053888074405600,18.363405517578126,1.66586434841156,0.07164576649665833,-0.1685115396976471
1686053888094405600,18.383405517578126,1.595981478691101,-0.007941247895359993,-0.17891369760036469
1686053888114405600,18.403405517578125,1.5782663822174072,-0.07140141725540161,-0.12227776646614075
1686053888134405600,18.423405517578125,1.6312719583511353,0.014713125303387642,-0.009494591504335403
1686053888154405600,18.443405517578125,1.6606284379959106,0.06918485462665558,0.1005135104060173
1686053888174405600,18.463405517578124,1.6728980541229248,0.052900929003953934,0.1546710729598999
1686053888194405600,18.483405517578124,1.6227896213531494,0.04145156964659691,0.12206833064556122
1686053888214405600,18.503405517578123,1.6495978832244873,0.2028072625398636,0.02675589732825756
1686053888234405600,18.523405517578126,1.7781589031219482,0.5400747060775757,0.0028448866214603186
1686053888254405600,18.543405517578126,1.8286687135696411,0.6400296688079834,-0.1894903928041458
1686053888274405600,18.563405517578126,1.749971866607666,0.5133362412452698,-0.4939630925655365
1686053888294405600,18.583405517578125,1.6575915813446045,0.32068678736686707,-0.6525087952613831
1686053888314405600,18.603405517578125,1.6903339624404907,0.12957324087619781,-0.4369431734085083
1686053888334405600,18.623405517578124,1.811686635017395,0.19542451202869415,0.02165953628718853
1686053888354405600,18.643405517578124,1.8606431484222412,0.34690165519714355,0.3995582163333893
1686053888374405600,18.663405517578123,1.747545838356018,0.5357811450958252,0.455705463886261
1686053888394405600,18.683405517578127,1.646718144416809,0.6014928221702576,0.2347293347120285
1686053888414405600,18.703405517578126,1.563064455986023,0.42554616928100586,0.015620696358382702
1686053888434405600,18.723405517578126,1.337183952331543,0.09152506291866302,-0.13081242144107819
1686053888454405600,18.743405517578125,1.3300106525421143,-0.18741345405578613,-0.19060741364955902
1686053888474405600,18.763405517578125,1.4256547689437866,-0.07468263804912567,-0.06417575478553772
1686053888494405600,18.783405517578124,1.429843544960022,0.06881833076477051,0.0018325956771150231
1686053888514405600,18.803405517578124,1.4656926393508911,0.2822372019290924,-0.06504841893911362
1686053888534405600,18.823405517578124,1.3868910074234009,0.29562386870384216,-0.11081095039844513
1686053888554405600,18.843405517578127,1.2724671363830566,0.18294541537761688,-0.061138883233070374
1686053888574405600,18.863405517578126,1.0967823266983032,0.09435249865055084,0.05061454698443413
1686053888594405600,18.883405517578126,0.9681864976882935,0.08079128712415695,0.11931070685386658
1686053888614405600,18.903405517578125,0.9452877640724182,0.02134537696838379,0.14685200154781342
1686053888634405600,18.923405517578125,0.916559636592865,-0.016441000625491142,0.19511035084724426
1686053888654405600,18.943405517578125,0.8868890404701233,-0.014503685757517815,0.2804744243621826
1686053888674405600,18.963405517578124,0.8088728189468384,0.11126474291086197,0.3378782868385315
1686053888694405600,18.983405517578124,0.7393040060997009,0.23181463778018951,0.30494391918182373
1686053888714405600,19.003405517578123,0.6829996705055237,0.39701005816459656,0.09049531817436218
1686053888734405600,19.023405517578126,0.6046518683433533,0.4685685336589813,-0.06503096967935562
1686053888754405600,19.043405517578126,0.6014055609703064,0.49961796402931213,-0.1437453180551529
1686053888774405600,19.063405517578126,0.6216339468955994,0.5469338297843933,-0.08983209729194641
1686053888794405600,19.083405517578125,0.6364692449569702,0.4443957209587097,-0.2811201810836792
1686053888814405600,19.103405517578125,0.5427799224853516,0.1598197966814041,-0.6040759086608887
1686053888834405600,19.123405517578124,0.42439424991607666,0.14014993607997894,-0.5451186895370483
1686053888854405600,19.143405517578124,0.47420597076416016,-0.058311451226472855,-0.16004669666290283
1686053888874405600,19.163405517578123,0.6063972115516663,-0.12397073954343796,0.34836772084236145
1686053888894405600,19.183405517578127,0.6646737456321716,0.010489428415894508,0.5374042987823486
1686053888914405600,19.203405517578126,0.5866400599479675,0.05886995419859886,0.3251723051071167
1686053888934405600,19.223405517578126,0.31354838609695435,0.14294245839118958,0.02183406800031662
1686053888954405600,19.243405517578125,0.32356658577919006,0.2188642919063568,-0.15830136835575104
1686053888974405600,19.263405517578125,0.2895152270793915,0.3508460819721222,-0.11917108297348022
1686053888994405600,19.283405517578124,0.2566332221031189,0.4136779308319092,-0.04845033958554268
1686053889014405600,19.303405517578124,0.24352578818798065,0.3727674186229706,0.06429792940616608
1686053889034405600,19.323405517578124,0.21568778157234192,0.1474977731704712,0.29277896881103516
1686053889054405600,19.343405517578127,0.1783202886581421,0.026476643979549408,0.5142089128494263
1686053889074405600,19.363405517578126,0.153257355093956,0.006108652334660292,0.5883504748344421
1686053889094405600,19.383405517578126,0.15571828186511993,0.020804325118660927,0.5809677243232727
1686053889114405600,19.403405517578125,0.13643239438533783,0.07419394701719284,0.4691619575023651
1686053889134405600,19.423405517578125,0.08271115273237228,0.032218776643276215,0.31038933992385864
1686053889154405600,19.443405517578125,-0.018727382645010948,-0.06248278543353081,0.15231488645076752
1686053889174405600,19.463405517578124,-0.1388409435749054,-0.17362534999847412,0.005078908056020737
1686053889194405600,19.483405517578124,-0.2621135413646698,-0.29799750447273254,-0.03684389963746071
1686053889214405600,19.503405517578123,-0.33367204666137695,-0.3294832408428192,-0.035814154893159866
1686053889234405600,19.523405517578126,-0.40304887294769287,-0.33623766899108887,-0.14439108967781067
1686053889254407200,19.5434072265625,-0.4918861389160156,-0.4381299912929535,-0.2508910894393921
1686053889274407200,19.5634072265625,-0.6388777494430542,-0.4415857493877411,-0.2068215161561966
1686053889294405600,19.583405517578125,-0.6972590088844299,-0.31351348757743835,0.015568336471915245
1686053889314405600,19.603405517578125,-0.8126427531242371,-0.1005135104060173,0.30665433406829834
1686053889334405600,19.623405517578124,-1.002709150314331,-0.00518362782895565,0.026424285024404526
1686053889354405600,19.643405517578124,-1.1180927753448486,0.02445206232368946,-0.30174997448921204
1686053889374405600,19.663405517578123,-1.1507478952407837,0.09257226437330246,-0.037088245153427124
1686053889394405600,19.683405517578127,-1.0228501558303833,-0.015760323032736778,0.3409675359725952
1686053889414405600,19.703405517578126,-0.9035046100616455,-0.029304077848792076,0.46209338307380676
1686053889434405600,19.723405517578126,-0.8200429677963257,-0.23394393920898438,0.2514146864414215
1686053889454405600,19.743405517578125,-0.7362496852874756,-0.4430343806743622,-0.10068804770708084
1686053889474405600,19.763405517578125,-0.6630156636238098,-0.39940115809440613,-0.2647140920162201
1686053889494405600,19.783405517578124,-0.6278996467590332,-0.20299924910068512,-0.36220818758010864
1686053889514405600,19.803405517578124,-0.6532767415046692,-0.20374973118305206,-0.43971824645996094
1686053889534405600,19.823405517578124,-0.7898662090301514,-0.4358785152435303,-0.5274559259414673
1686053889554405600,19.843405517578127,-0.722950279712677,-0.24605651199817657,-0.4271344244480133
1686053889574405600,19.863405517578126,-0.6555107831954956,-0.25960028171539307,-0.16858135163784027
1686053889594405600,19.883405517578126,-0.506232738494873,-0.22333233058452606,-0.012775810435414314
1686053889614405600,19.903405517578125,-0.3307049870491028,-0.2946464717388153,0.05124286562204361
1686053889634405600,19.923405517578125,-0.2082526832818985,-0.13946926593780518,0.21094049513339996
1686053889654405600,19.943405517578125,-0.1045626774430275,-0.1273392289876938,0.29770082235336304
1686053889674405600,19.963405517578124,-0.06525786221027374,-0.14964452385902405,0.21275563538074493
1686053889694405600,19.983405517578124,-0.010594148188829422,-0.23438026010990143,0.10103710740804672
1686053889714405600,20.003405517578123,0.047019168734550476,-0.21509437263011932,0.1181064322590828
1686053889734405600,20.023405517578126,0.11817624419927597,-0.016702800989151,0.17989107966423035
1686053889754405600,20.043405517578126,0.1843416690826416,0.09639453142881393,0.16318827867507935
1686053889774405600,20.063405517578126,0.22617721557617188,0.05527457594871521,0.0659559890627861
1686053889794405600,20.083405517578125,0.2696184515953064,-0.05660102888941765,0.025237461552023888
1686053889814405600,20.103405517578125,0.38414695858955383,-0.027646014466881752,0.10883872956037521
1686053889834405600,20.123405517578124,0.37344810366630554,0.12346459180116653,-0.07511897385120392
1686053889854405600,20.143405517578124,0.335906058549881,0.02050761878490448,-0.5250299572944641
1686053889874405600,20.163405517578123,0.2909638285636902,-0.19223056733608246,-0.49731412529945374
1686053889894405600,20.183405517578127,0.34470251202583313,-0.18325957655906677,-0.09896016865968704
1686053889914405600,20.203405517578126,0.4340459406375885,0.22509510815143585,0.470593124628067
1686053889934405600,20.223405517578126,0.5412091612815857,0.243665412068367,0.4760734438896179
1686053889954405600,20.243405517578125,0.5390623807907104,0.23630012571811676,0.062343161553144455
1686053889974405600,20.263405517578125,0.5145754218101501,0.23926718533039093,-0.42669808864593506
1686053889994405600,20.283405517578124,0.49357911944389343,0.25040239095687866,-0.46994733810424805
1686053890014407200,20.3034072265625,0.49980995059013367,0.14072589576244354,-0.147445410490036
1686053890034405600,20.323405517578124,0.5455549955368042,0.07033676654100418,0.2676636874675751
1686053890054405600,20.343405517578127,0.5727821588516235,-0.03015928901731968,0.42638394236564636
1686053890074405600,20.363405517578126,0.5628686547279358,-0.12262683361768723,0.408511757850647
1686053890094405600,20.383405517578126,0.5240350961685181,-0.15859806537628174,0.27293458580970764
1686053890114405600,20.403405517578125,0.4657410979270935,-0.0754680335521698,0.20439550280570984
1686053890134405600,20.423405517578125,0.4107283353805542,0.010314895771443844,0.21535617113113403
1686053890154405600,20.443405517578125,0.3556457459926605,0.04358087107539177,0.24937264621257782
1686053890174405600,20.463405517578124,0.30031880736351013,0.03933972120285034,0.2660928964614868
1686053890194405600,20.483405517578124,0.3174055814743042,0.023893557488918304,0.3431317210197449
1686053890214405600,20.503405517578123,0.3894353210926056,-0.012828170321881771,0.45439645648002625
1686053890234405600,20.523405517578126,0.4213224947452545,-0.15214034914970398,0.5393590927124023
1686053890254405600,20.543405517578126,0.27490681409835815,-0.4259999692440033,0.4279721975326538
1686053890274405600,20.563405517578126,0.028134707361459732,-0.701657235622406,0.11444123834371567
1686053890294405600,20.583405517578125,-0.12889257073402405,-0.7039960026741028,-0.09552186727523804
1686053890314405600,20.603405517578125,-0.2571393549442291,-0.5589940547943115,-0.07913322746753693
1686053890334405600,20.623405517578124,-0.42264893651008606,-0.5856626629829407,-0.37655478715896606
1686053890354405600,20.643405517578124,-0.6231697797775269,-0.5284857153892517,-0.5220628976821899
1686053890374405600,20.663405517578123,-0.6902602910995483,-0.4260174036026001,-0.12185888737440109
1686053890394405600,20.683405517578127,-0.6691243052482605,-0.16023868322372437,0.511992335319519
1686053890414405600,20.703405517578126,-0.6494893431663513,-0.031014500185847282,0.6111619472503662
1686053890434405600,20.723405517578126,-0.6569419503211975,-0.13697344064712524,0.22046999633312225
1686053890454405600,20.743405517578125,-0.5503023266792297,-0.2462834119796753,-0.45903903245925903
1686053890474405600,20.763405517578125,-0.4865279793739319,-0.27459263801574707,-0.9151983261108398
1686053890494405600,20.783405517578124,-0.44317400455474854,-0.1866455078125,-0.7071375846862793
1686053890514405600,20.803405517578124,-0.4556182026863098,-0.11274827271699905,-0.2597399055957794
1686053890534405600,20.823405517578124,-0.41463786363601685,0.07206464558839798,0.126710906624794
1686053890554405600,20.843405517578127,-0.2598271667957306,0.11154399067163467,0.2894802987575531
1686053890574405600,20.863405517578126,-0.07923794537782669,0.15777775645256042,0.26171213388442993
1686053890594405600,20.883405517578126,0.09428268671035767,0.14493213593959808,0.17374752461910248
1686053890614405600,20.903405517578125,0.2509608864784241,0.05710717290639877,0.12983503937721252
1686053890634405600,20.923405517578125,0.40160027146339417,0.01616174913942814,0.12508775293827057
1686053890654405600,20.943405517578125,0.5690471529960632,0.08536405116319656,0.1313709318637848
1686053890674405600,20.963405517578124,0.7483099102973938,0.1557880938053131,0.14128440618515015
1686053890694405600,20.983405517578124,0.9228951930999756,0.18072883784770966,0.14957471191883087
1686053890714405600,21.003405517578123,1.094967246055603,0.2315877377986908,0.21507692337036133
1686053890734405600,21.023405517578126,1.289641261100769,0.34747758507728577,0.25968754291534424
1686053890754405600,21.043405517578126,1.46197509765625,0.3655417561531067,0.26656413078308105
1686053890774407200,21.0634072265625,1.53681480884552,0.3016452491283417,0.2024756520986557
1686053890794405600,21.083405517578125,1.6436289548873901,0.23682372272014618,0.22432716190814972
1686053890814405600,21.103405517578125,1.8046355247497559,0.1998751014471054,0.1791754961013794
1686053890834405600,21.123405517578124,1.8619695901870728,0.045640360563993454,-0.3378259241580963
1686053890854405600,21.143405517578124,1.8071138858795166,-0.123290054500103,-0.7187440395355225
1686053890874405600,21.163405517578123,1.7253801822662354,0.16441000998020172,-0.34170055389404297
1686053890894405600,21.183405517578127,1.7612117528915405,0.6569070219993591,0.35791465640068054
1686053890914405600,21.203405517578126,1.7570054531097412,1.0405304431915283,0.6632076501846313
1686053890934405600,21.223405517578126,1.826975703239441,1.1003952026367188,0.36185911297798157
1686053890954405600,21.243405517578125,1.9045381546020508,0.9254259467124939,-0.06557202339172363
1686053890974405600,21.263405517578125,2.0023114681243896,0.6995803117752075,-0.3070034086704254
1686053890994405600,21.283405517578124,2.042227268218994,0.46675339341163635,-0.24343852698802948
1686053891014405600,21.303405517578124,2.0469048023223877,0.3234793245792389,-0.03822271153330803
1686053891034407200,21.3234072265625,1.9666719436645508,0.2889218032360077,0.15645131468772888
1686053891054405600,21.343405517578127,1.9057599306106567,0.2658136487007141,0.33477160334587097
1686053891074405600,21.363405517578126,1.8531382083892822,0.2888869047164917,0.46727699041366577
1686053891094407200,21.3834072265625,1.7487674951553345,0.29272663593292236,0.45750316977500916
1686053891114405600,21.403405517578125,1.6222660541534424,0.2888869047164917,0.36973056197166443
1686053891134405600,21.423405517578125,1.492116928100586,0.2612583339214325,0.30072021484375
1686053891154405600,21.443405517578125,1.343729019165039,0.24212951958179474,0.2076767235994339
1686053891174405600,21.463405517578124,1.2153949737548828,0.23343779146671295,0.12976522743701935
1686053891194405600,21.483405517578124,1.067914605140686,0.20952677726745605,0.19833920896053314
1686053891214405600,21.503405517578123,0.8847946524620056,0.07063347101211548,0.20490165054798126
1686053891234405600,21.523405517578126,0.6819350719451904,-0.15247195959091187,0.08571311831474304
1686053891254405600,21.543405517578126,0.5100724697113037,-0.30951669812202454,-0.10777407884597778
1686053891274405600,21.563405517578126,0.35129988193511963,-0.3660828173160553,-0.1705012172460556
1686053891294405600,21.583405517578125,0.30637508630752563,-0.4210781455039978,-0.010751227848231792
1686053891314405600,21.603405517578125,0.20011945068836212,-0.43270203471183777,-0.11976449191570282
1686053891334405600,21.623405517578124,0.013735741376876831,-0.35934582352638245,-0.46898743510246277
1686053891354405600,21.643405517578124,-0.15404276549816132,-0.23513075709342957,-0.5135107636451721
1686053891374405600,21.663405517578123,-0.07087782025337219,0.05389576777815819,0.04366813600063324
1686053891394405600,21.683405517578127,0.11225957423448563,0.3001093566417694,0.6733829379081726
1686053891414405600,21.703405517578126,0.22717206180095673,0.1912706345319748,0.6396980881690979
1686053891434405600,21.723405517578126,0.2842792272567749,-0.10211921483278275,0.13836970925331116
1686053891454405600,21.743405517578125,0.32618457078933716,-0.09651670604944229,-0.26223573088645935
1686053891474405600,21.763405517578125,0.40971603989601135,0.13491395115852356,-0.16435766220092773
1686053891494405600,21.783405517578124,0.5555208325386047,0.3735353648662567,0.15601497888565063
1686053891514407200,21.8034072265625,0.7090749144554138,0.40996038913726807,0.3413864076137543
1686053891534405600,21.823405517578124,0.8426973223686218,0.3194127082824707,0.31344369053840637
1686053891554405600,21.843405517578127,0.9421811103820801,0.25127506256103516,0.269059956073761
1686053891574405600,21.863405517578126,1.0093413591384888,0.21064378321170807,0.25562092661857605
1686053891594405600,21.883405517578126,1.0465168952941895,0.2612234354019165,0.1998576521873474
1686053891614405600,21.903405517578125,1.0965031385421753,0.34492942690849304,0.18844319880008698
1686053891634405600,21.923405517578125,1.189633846282959,0.4352152943611145,0.18355627357959747
1686053891654405600,21.943405517578125,1.313866376876831,0.4740663170814514,0.17521360516548157
1686053891674405600,21.963405517578124,1.451520562171936,0.48233920335769653,0.21132446825504303
1686053891694405600,21.983405517578124,1.5789644718170166,0.4997226595878601,0.2883807420730591
1686053891714405600,22.003405517578123,1.7183988094329834,0.5715429782867432,0.2975088357925415
1686053891734405600,22.023405517578126,1.8506075143814087,0.6453704237937927,0.2143089771270752
1686053891754405600,22.043405517578126,1.9420976638793945,0.6747791767120361,0.05777039751410484
1686053891774405600,22.063405517578126,2.0005311965942383,0.6614972352981567,0.02497566118836403
1686053891794405600,22.083405517578125,2.114030122756958,0.5660800933837891,0.24822072684764862
1686053891814405600,22.103405517578125,2.230757713317871,0.5125159621238708,0.44854962825775146
1686053891834405600,22.123405517578124,2.2238810062408447,0.3991742432117462,0.22588050365447998
1686053891854405600,22.143405517578124,2.137277841567993,0.32822662591934204,-0.2637716233730316
1686053891874405600,22.163405517578123,2.1145362854003906,0.5868495106697083,-0.37777650356292725
1686053891894405600,22.183405517578127,2.2378087043762207,1.0739883184432983,-0.04916592314839363
1686053891914405600,22.203405517578126,2.375061511993408,1.4024592638015747,0.2056346982717514
1686053891934405600,22.223405517578126,2.4679129123687744,1.268889307975769,-0.004328416660428047
1686053891954405600,22.243405517578125,2.4754178524017334,1.0223091840744019,-0.2767219543457031
1686053891974405600,22.263405517578125,2.3963022232055664,0.7260220646858215,-0.2790606915950775
1686053891994405600,22.283405517578124,2.2859623432159424,0.4956560432910919,-0.03450515866279602
1686053892014405600,22.303405517578124,2.1560401916503906,0.4332605302333832,0.3228684663772583
1686053892034405600,22.323405517578124,2.021265745162964,0.39500290155410767,0.5113814473152161
1686053892054405600,22.343405517578127,1.912357211112976,0.4225791096687317,0.49843111634254456
1686053892074405600,22.363405517578126,1.8776601552963257,0.4503996670246124,0.33307862281799316
1686053892094405600,22.383405517578126,1.8303791284561157,0.41610395908355713,0.133622407913208
1686053892114405600,22.403405517578125,1.7308954000473022,0.31384509801864624,-0.0035953782498836517
1686053892134405600,22.423405517578125,1.6289507150650024,0.20181241631507874,-0.07508406043052673
1686053892154405600,22.443405517578125,1.4973005056381226,0.16091935336589813,-0.06845181435346603
1686053892174405600,22.463405517578124,1.345229983329773,0.1080009713768959,0.05274384841322899
1686053892194405600,22.483405517578124,1.1521791219711304,0.02010619267821312,0.21062633395195007
1686053892214405600,22.503405517578123,0.909665584564209,-0.05256931856274605,0.2554987370967865
1686053892234405600,22.523405517578126,0.66697758436203,0.005375613924115896,0.14032447338104248
1686053892254405600,22.543405517578126,0.4268726408481598,0.10901326686143875,-0.01713913306593895
1686053892274405600,22.563405517578126,0.2672099173069,0.17243853211402893,-0.11849040538072586
1686053892294405600,22.583405517578125,0.2085144817829132,0.15936601161956787,-0.06578145921230316
1686053892314405600,22.603405517578125,0.2119702398777008,0.07557275891304016,-0.21308724582195282
1686053892334405600,22.623405517578124,0.15934856235980988,-0.02139773592352867,-0.5352051854133606
1686053892354405600,22.643405517578124,0.09213592857122421,-0.05136504024267197,-0.4737870693206787
1686053892374405600,22.663405517578123,0.08681267499923706,-0.00502654816955328,0.0021118484437465668
1686053892394405600,22.683405517578127,0.1080184280872345,0.02909463830292225,0.39280378818511963
1686053892414405600,22.703405517578126,0.09321803599596024,-0.019250981509685516,0.3410547971725464
1686053892434405600,22.723405517578126,0.08349654823541641,-0.017662731930613518,-0.024207716807723045
1686053892454405600,22.743405517578125,0.0826762467622757,0.08185594528913498,-0.3909188508987427
1686053892474405600,22.763405517578125,0.08475318551063538,0.23657937347888947,-0.4282339811325073
1686053892494405600,22.783405517578124,0.10466739535331726,0.27696630358695984,-0.27670449018478394
1686053892514405600,22.803405517578124,0.1684766262769699,0.31906363368034363,0.0032463124953210354
1686053892534405600,22.823405517578124,0.24816836416721344,0.2497217059135437,0.21971949934959412
1686053892554405600,22.843405517578127,0.31787681579589844,0.15922638773918152,0.2615899443626404
1686053892574405600,22.863405517578126,0.3503224849700928,0.14796900749206543,0.17585937678813934
1686053892594405600,22.883405517578126,0.35184091329574585,0.11758282780647278,0.11775736510753632
1686053892614405600,22.903405517578125,0.35128241777420044,0.13217377662658691,0.10250318795442581
1686053892634405600,22.923405517578125,0.3752632439136505,0.16345007717609406,0.09784315526485443
1686053892654405600,22.943405517578125,0.43224823474884033,0.1864011585712433,0.082972951233387
1686053892674405600,22.963405517578124,0.49878019094467163,0.2137330174446106,0.08084364980459213
1686053892694405600,22.983405517578124,0.5725029110908508,0.2685014605522156,0.03954916074872017
1686053892714405600,23.003405517578123,0.6408500075340271,0.3887895345687866,-0.047856926918029785
1686053892734405600,23.023405517578126,0.6844134330749512,0.46532222628593445,-0.14753268659114838
1686053892754405600,23.043405517578126,0.7267725467681885,0.4801575243473053,-0.21882937848567963
1686053892774405600,23.063405517578126,0.7715402245521545,0.4329638183116913,-0.1838006228208542
1686053892794405600,23.083405517578125,0.8615468740463257,0.37400659918785095,0.04668755829334259
1686053892814405600,23.103405517578125,0.9797230958938599,0.4467170238494873,0.2180439829826355
1686053892834405600,23.123405517578124,1.0166717767715454,0.3963293731212616,-0.03618067502975464
1686053892854405600,23.143405517578124,0.9484293460845947,0.2701769769191742,-0.5349085330963135
1686053892874405600,23.163405517578123,0.9112189412117004,0.21350613236427307,-0.3160093128681183
1686053892894407200,23.1834072265625,1.0403558015823364,0.4905073344707489,0.4994434118270874
1686053892914405600,23.203405517578126,1.2005246877670288,0.7129321098327637,1.0427993535995483
1686053892934405600,23.223405517578126,1.2779998779296875,0.6728244423866272,0.8924915790557861
1686053892954405600,23.243405517578125,1.2622220516204834,0.544944167137146,0.16425293684005737
1686053892974407200,23.2634072265625,1.2201422452926636,0.5412440299987793,-0.6007074117660522
1686053892994405600,23.283405517578124,1.1472747325897217,0.2863387167453766,-0.8818625211715698
1686053893014405600,23.303405517578124,1.0358878374099731,-0.014521139673888683,-0.6088930368423462
1686053893034407200,23.3234072265625,0.9455670118331909,-0.08702211827039719,-0.005497787147760391
1686053893054407200,23.3434072265625,0.8810421824455261,-0.007103490177541971,0.44919538497924805
1686053893074407200,23.3634072265625,0.8278445601463318,0.1276184767484665,0.6243042945861816
1686053893094405600,23.383405517578126,0.7307868003845215,0.1206720620393753,0.5139645338058472
1686053893114405600,23.403405517578125,0.6097656488418579,0.03525565192103386,0.2655169367790222
1686053893134405600,23.423405517578125,0.5201953649520874,0.003455751808360219,0.10498155653476715
1686053893154405600,23.443405517578125,0.46179667115211487,0.03326597437262535,0.07386233657598495
1686053893174405600,23.463405517578124,0.4069409668445587,0.05398303270339966,0.1056971400976181
1686053893194405600,23.483405517578124,0.35061919689178467,-0.007871435023844242,0.12887510657310486
1686053893214405600,23.503405517578123,0.2779436707496643,-0.13877113163471222,0.14585717022418976
1686053893234405600,23.523405517578126,0.18826866149902344,-0.23806290328502655,0.04811872914433479
1686053893254405600,23.543405517578126,0.05457644537091255,-0.338785856962204,-0.20083503425121307
1686053893274405600,23.563405517578126,-0.10625564306974411,-0.43188172578811646,-0.3913900852203369
1686053893294405600,23.583405517578125,-0.18842574954032898,-0.3931877613067627,-0.2424960434436798
1686053893314405600,23.603405517578125,-0.29358184337615967,-0.18081611394882202,-0.008203047327697277
1686053893334405600,23.623405517578124,-0.46736425161361694,-0.08243189752101898,-0.10386454313993454
1686053893354405600,23.643405517578124,-0.611825168132782,-0.04124213010072708,-0.1549677848815918
1686053893374407200,23.6634072265625,-0.6475520730018616,0.03850196301937103,0.17097245156764984
1686053893394405600,23.683405517578127,-0.5893628001213074,0.00921533815562725,0.5932548642158508
1686053893414405600,23.703405517578126,-0.5231624245643616,-0.0015009831404313445,0.574859082698822
1686053893434405600,23.723405517578126,-0.5131093263626099,-0.13147565722465515,0.10843730717897415
1686053893454405600,23.743405517578125,-0.5330584645271301,-0.2451140433549881,-0.5021312236785889
1686053893474405600,23.763405517578125,-0.5955063104629517,-0.236719012260437,-0.681900143623352
1686053893494405600,23.783405517578124,-0.5876523852348328,-0.11875220388174057,-0.38557812571525574
1686053893514405600,23.803405517578124,-0.4873482882976532,0.0832347497344017,0.0694291964173317
1686053893534405600,23.823405517578124,-0.37109190225601196,0.09379399567842484,0.2816786766052246
1686053893554405600,23.843405517578127,-0.27054348587989807,-0.04447098821401596,0.20111428201198578
1686053893574405600,23.863405517578126,-0.2243795245885849,-0.12119566649198532,0.07337363809347153
1686053893594405600,23.883405517578126,-0.21577505767345428,-0.076602503657341,-0.05150466784834862
1686053893614405600,23.903405517578125,-0.22371630370616913,0.009791296906769276,-0.062430426478385925
1686053893634405600,23.923405517578125,-0.22300072014331818,0.13002702593803406,-0.04738568887114525
1686053893654405600,23.943405517578125,-0.1941155195236206,0.20685642957687378,-0.11972958594560623
1686053893674405600,23.963405517578124,-0.13528047502040863,0.2661627233028412,-0.21190042793750763
1686053893694405600,23.983405517578124,-0.027611108496785164,0.3374943137168884,-0.23888321220874786
1686053893714405600,24.003405517578123,0.08086110651493073,0.39222782850265503,-0.12276645749807358
1686053893734405600,24.023405517578126,0.1685289889574051,0.3890513479709625,0.02094395086169243
1686053893754405600,24.043405517578126,0.2607347369194031,0.32133257389068604,0.001518436474725604
1686053893774405600,24.063405517578126,0.3168121576309204,0.23911011219024658,-0.16203637421131134
1686053893794405600,24.083405517578125,0.3859272003173828,0.11569787561893463,-0.2451489418745041
1686053893814405600,24.103405517578125,0.5416280031204224,0.14940018951892853,-0.17071065306663513
1686053893834405600,24.123405517578124,0.5926091074943542,0.20383700728416443,-0.34950217604637146
1686053893854405600,24.143405517578124,0.5382769703865051,0.09478883445262909,-0.7831117510795593
1686053893874405600,24.163405517578123,0.4407305419445038,-0.007819075137376785,-0.7191280126571655
1686053893894405600,24.183405517578127,0.4622679054737091,0.03405137360095978,-0.278868705034256
1686053893914405600,24.203405517578126,0.5836032032966614,0.3115761876106262,0.17331118881702423
1686053893934405600,24.223405517578126,0.6517233848571777,0.2773328125476837,0.12981759011745453
1686053893954405600,24.243405517578125,0.6438694000244141,0.17955946922302246,-0.2390577495098114
1686053893974405600,24.263405517578125,0.6158044934272766,0.16598081588745117,-0.5996776819229126
1686053893994405600,24.283405517578124,0.5406506657600403,0.047333329916000366,-0.765675961971283
1686053894014405600,24.303405517578124,0.4715530574321747,-0.01029744278639555,-0.5715080499649048
1686053894034405600,24.323405517578124,0.4473104178905487,-0.05394812673330307,-0.08819148689508438
1686053894054405600,24.343405517578127,0.49581313133239746,0.02652900479733944,0.2578200399875641
1686053894074405600,24.363405517578126,0.5087110996246338,0.04658283665776253,0.35814157128334045
1686053894094405600,24.383405517578126,0.4502774775028229,0.0269304309040308,0.19931660592556
1686053894114405600,24.403405517578125,0.3585604429244995,-0.0015882495790719986,0.003298672381788492
1686053894134405600,24.423405517578125,0.29220300912857056,0.023369958624243736,-0.036023594439029694
