time,seconds_elapsed,z,y,x
1686052885617802000,0.234802001953125,-0.0007504915702156723,0.0012217304902151227,0.0019896754529327154
1686052885644802000,0.261802001953125,-0.00047123889089562,-0.00031415926059708,0.00010471975838299841
1686052885664802000,0.281802001953125,-0.0005061454721726477,0.00047123889089562,0.003001966280862689
1686052885684802000,0.301802001953125,-0.00047123889089562,0.0007330382941290736,0.002914699725806713
1686052885704802000,0.321802001953125,-0.0007504915702156723,0.0015358896926045418,0.0036651913542300463
1686052885724802000,0.341802001953125,-0.00013962633966002613,0.0012042771559208632,0.0038222710136324167
1686052885744802000,0.361802001953125,-0.0005061454721726477,0.00041887903353199363,0.0025830871891230345
1686052885764802000,0.381802001953125,-0.0005061454721726477,0.0010821041651070118,0.002740166848525405
1686052885784802000,0.401802001953125,-0.0004886921960860491,0.0008203047327697277,0.003577925032004714
1686052885804802000,0.421802001953125,-0.00029670598451048136,0.0010821041651070118,0.0034208453726023436
1686052885824800300,0.44180029296875,-0.0008552113431505859,0.0036128314677625895,0.003403391921892762
1686052885844802000,0.461802001953125,-0.00029670598451048136,0.0012042771559208632,0.0024434609804302454
1686052885864800300,0.48180029296875,-0.00008726646046852693,0.0013264502631500363,0.003351032268255949
1686052885884800300,0.50180029296875,-0.0005061454721726477,0.0015707963611930609,0.0031939526088535786
1686052885904800300,0.52180029296875,-0.00094247778179124,0.0019198621157556772,0.0034382985904812813
1686052885924802000,0.541802001953125,-0.0005061454721726477,0.00094247778179124,0.0022689281031489372
1686052885944800300,0.56180029296875,-0.0006108652451075613,0.0019547687843441963,0.002809980185702443
1686052885964800300,0.58180029296875,-0.0005585053586401045,0.0006806784076616168,0.0031066860537976027
1686052885984800300,0.60180029296875,0.00038397242315113544,0.0012915435945615172,0.0016929693520069122
1686052886004800300,0.62180029296875,0.0005061454721726477,0.0005759586347267032,0.003403391921892762
1686052886024800300,0.64180029296875,-0.00022689280740451068,0.0011693706037476659,0.0030194194987416267
1686052886044800300,0.66180029296875,-0.0005585053586401045,0.0012042771559208632,0.00296705961227417
1686052886064800300,0.68180029296875,-0.00003490658491500653,0.0009075712296180427,0.002321287989616394
1686052886084800300,0.70180029296875,-0.000715585018042475,0.0008377580670639873,0.0038746309000998735
1686052886104800300,0.72180029296875,-0.0005585053586401045,0.0012217304902151227,0.0033335788175463676
1686052886124800300,0.74180029296875,-0.00003490658491500653,0.00024434609804302454,0.0030194194987416267
1686052886144802000,0.761802001953125,-0.0005061454721726477,0.00024434609804302454,0.0021118484437465668
1686052886164800300,0.78180029296875,-0.0005061454721726477,0.0008377580670639873,0.0031939526088535786
1686052886184802000,0.801802001953125,-0.0005061454721726477,0.001745329238474369,0.003857177682220936
1686052886204802000,0.821802001953125,-0.00045378561480902135,-0.00027925267932005227,0.0019547687843441963
1686052886224800300,0.84180029296875,-0.0005934119690209627,0.0010646508308127522,0.003298672381788492
1686052886244800300,0.86180029296875,-0.0005061454721726477,0.0009250245057046413,0.003577925032004714
1686052886264800300,0.88180029296875,-0.0005061454721726477,0.0008901178953237832,0.003403391921892762
1686052886284800300,0.90180029296875,-0.00008726646046852693,0.0013264502631500363,0.003298672381788492
1686052886304802000,0.921802001953125,0.00003490658491500653,0.0010471974965184927,0.0033684854861348867
1686052886324802000,0.941802001953125,-0.0004886921960860491,0.0023038345389068127,0.0029845130629837513
1686052886344802000,0.961802001953125,-0.00040142572834156454,0.0011519172694534063,0.0023911010939627886
1686052886364800300,0.98180029296875,-0.0013264502631500363,0.002775073517113924,0.003490658476948738
1686052886384800300,1.00180029296875,-0.0004886921960860491,0.0010122909443452954,0.002460914198309183
1686052886404800300,1.02180029296875,-0.0005235987482592463,0.00047123889089562,0.0016929693520069122
1686052886424802000,1.041802001953125,-0.0003490658418741077,0.0011344640515744686,0.003577925032004714
1686052886444800300,1.06180029296875,-0.00003490658491500653,0.0008901178953237832,0.00205948855727911
1686052886464800300,1.08180029296875,-0.0006981316837482154,0.0012740903766825795,0.0029321531765162945
1686052886484800300,1.10180029296875,-0.0007330382941290736,0.0013089969288557768,0.0031241392716765404
1686052886504800300,1.12180029296875,-0.00045378561480902135,0.0005759586347267032,0.004310963209718466
1686052886524800300,1.14180029296875,-0.0009773843921720982,0.0006632251315750182,0.0028623400721699
1686052886544800300,1.16180029296875,-0.0008377580670639873,0.0018325956771150231,0.0029845130629837513
1686052886564800300,1.18180029296875,-0.0005235987482592463,0.0005061454721726477,0.003804817795753479
1686052886584802000,1.201802001953125,0.00015707963029854,0.00125663704238832,0.002548180753365159
1686052886604802000,1.221802001953125,-0.00040142572834156454,0.0013613568153232336,0.003351032268255949
1686052886624802000,1.241802001953125,-0.0003316125657875091,0.001483529806137085,0.0024958208668977022
1686052886644802000,1.261802001953125,-0.00019198621157556772,-0.00006981316983001307,0.0025830871891230345
1686052886664802000,1.281802001953125,0.00012217304902151227,0.0007853981805965304,0.0026703537441790104
1686052886684800300,1.30180029296875,-0.00040142572834156454,0.0019896754529327154,0.0025830871891230345
1686052886704800300,1.32180029296875,-0.0007853981805965304,0.0018325956771150231,0.0042236968874931335
1686052886724802000,1.341802001953125,-0.00019198621157556772,0.00205948855727911,0.0026529005263000727
1686052886744802000,1.361802001953125,-0.00022689280740451068,0.0019547687843441963,0.002722713630646467
1686052886764800300,1.38180029296875,0.000052359879191499203,-0.0006108652451075613,0
1686052886784802000,1.401802001953125,0.00003490658491500653,-0.0007853981805965304,-0.00003490658491500653
1686052886804800300,1.42180029296875,-0.00047123889089562,0.00006981316983001307,-0.00020943951676599681
1686052886824800300,1.44180029296875,0.0004886921960860491,0.000017453292457503267,0.00047123889089562
1686052886844800300,1.46180029296875,-0.00020943951676599681,0.00010471975838299841,0.0014137167017906904
1686052886864800300,1.48180029296875,-0.00017453292093705386,0.0010995573829859495,0.00094247778179124
1686052886884800300,1.50180029296875,-0.000052359879191499203,-0.0002617993741296232,-0.000052359879191499203
1686052886904800300,1.52180029296875,-0.00008726646046852693,0.0007853981805965304,0.0011868239380419254
1686052886924800300,1.54180029296875,0.0005235987482592463,-0.00019198621157556772,0.0006108652451075613
1686052886944800300,1.56180029296875,0.00024434609804302454,0.00003490658491500653,0.0005235987482592463
1686052886964800300,1.58180029296875,0.00024434609804302454,-0.00038397242315113544,0.0008726646192371845
1686052886984800300,1.60180029296875,-0.00017453292093705386,0.00038397242315113544,0.0002617993741296232
1686052887004800300,1.62180029296875,0.0008028514566831291,-0.00024434609804302454,0.00029670598451048136
1686052887024800300,1.64180029296875,-0.00003490658491500653,0.00094247778179124,-0.00024434609804302454
1686052887044800300,1.66180029296875,-0.0006806784076616168,-0.0002617993741296232,0.00012217304902151227
1686052887064800300,1.68180029296875,0.00024434609804302454,-0.0006108652451075613,-0.00024434609804302454
1686052887084800300,1.70180029296875,-0.00008726646046852693,-0.00022689280740451068,-0.0005759586347267032
1686052887104800300,1.72180029296875,0.00012217304902151227,0.0009250245057046413,0.0016057029133662581
1686052887124800300,1.74180029296875,-0.00013962633966002613,0.0005061454721726477,-0.0010471974965184927
1686052887144802000,1.761802001953125,0.00003490658491500653,0.0008552113431505859,0.00012217304902151227
1686052887164802000,1.781802001953125,-0.00040142572834156454,-0.00045378561480902135,-0.0005410520825535059
1686052887184800300,1.80180029296875,-0.0015358896926045418,0.00015707963029854,-0.00008726646046852693
1686052887204800300,1.82180029296875,-0.0006457717972807586,0.00017453292093705386,-0.00031415926059708
1686052887224802000,1.841802001953125,-0.000052359879191499203,-0.0003490658418741077,0.0006457717972807586
1686052887244800300,1.86180029296875,-0.00041887903353199363,0.00024434609804302454,-0.0012042771559208632
1686052887264800300,1.88180029296875,0.000017453292457503267,0.0010122909443452954,-0.0008028514566831291
1686052887284800300,1.90180029296875,0.00012217304902151227,0.00022689280740451068,0.00027925267932005227
1686052887304800300,1.92180029296875,0.00012217304902151227,0.0012042771559208632,-0.000052359879191499203
1686052887324800300,1.94180029296875,0.00041887903353199363,-0.0009773843921720982,0.00047123889089562
1686052887344800300,1.96180029296875,0.0002617993741296232,-0.00010471975838299841,0.00006981316983001307
1686052887364800300,1.98180029296875,0.00038397242315113544,-0.0006457717972807586,0.0005585053586401045
1686052887384800300,2.00180029296875,0.0007853981805965304,0.00029670598451048136,-0.00017453292093705386
1686052887404800300,2.02180029296875,-0.00015707963029854,-0.0009250245057046413,-0.001658062799833715
1686052887424800300,2.04180029296875,-0.0002617993741296232,0.0007679448463022709,-0.00022689280740451068
1686052887444800300,2.06180029296875,-0.00012217304902151227,-0.0007330382941290736,0.0009250245057046413
1686052887464800300,2.08180029296875,-0.000052359879191499203,-0.0003665191470645368,-0.0005410520825535059
1686052887484800300,2.10180029296875,0.00012217304902151227,0.000017453292457503267,-0.000017453292457503267
1686052887504800300,2.12180029296875,-0.00020943951676599681,0.0018151424592360854,0.0012042771559208632
1686052887524800300,2.14180029296875,0.00008726646046852693,-0.0008901178953237832,-0.0015882495790719986
1686052887544800300,2.16180029296875,0.00003490658491500653,0.0013613568153232336,0
1686052887564800300,2.18180029296875,0.0003490658418741077,0.00003490658491500653,-0.00029670598451048136
1686052887584800300,2.20180029296875,-0.000052359879191499203,-0.00019198621157556772,-0.0011868239380419254
1686052887604800300,2.22180029296875,0.00017453292093705386,-0.00041887903353199363,0.00062831852119416
1686052887624800300,2.24180029296875,-0.00003490658491500653,-0.00019198621157556772,-0.000052359879191499203
1686052887644800300,2.26180029296875,-0.00017453292093705386,-0.0005061454721726477,-0.0014137167017906904
1686052887664800300,2.28180029296875,-0.0003316125657875091,0.00043633230961859226,-0.0005759586347267032
1686052887684800300,2.30180029296875,-0.0006108652451075613,0.0018675023457035422,0.00038397242315113544
1686052887704800300,2.32180029296875,-0.00027925267932005227,-0.0011868239380419254,-0.0008028514566831291
1686052887724800300,2.34180029296875,-0.0008901178953237832,0.000715585018042475,0.000715585018042475
1686052887744800300,2.36180029296875,0.00024434609804302454,0.000052359879191499203,0.00041887903353199363
1686052887764800300,2.38180029296875,-0.00024434609804302454,-0.0005235987482592463,-0.0009599310578778386
1686052887784800300,2.40180029296875,0.00019198621157556772,-0.0015533430268988013,-0.0005061454721726477
1686052887804800300,2.42180029296875,0.0003490658418741077,-0.00094247778179124,-0.0011344640515744686
1686052887824800300,2.44180029296875,0.00003490658491500653,0,0.002548180753365159
1686052887844800300,2.46180029296875,-0.00019198621157556772,0.0013788101496174932,-0.00012217304902151227
1686052887864800300,2.48180029296875,-0.000017453292457503267,-0.0008726646192371845,-0.00029670598451048136
1686052887884800300,2.50180029296875,-0.00027925267932005227,-0.0008901178953237832,0.00006981316983001307
1686052887904800300,2.52180029296875,-0.00003490658491500653,-0.0003665191470645368,-0.0003490658418741077
1686052887924800300,2.54180029296875,0.00027925267932005227,0.0003490658418741077,0.00015707963029854
1686052887944800300,2.56180029296875,0.0002617993741296232,-0.0003490658418741077,-0.00022689280740451068
1686052887964800300,2.58180029296875,0.00040142572834156454,-0.000017453292457503267,0.0006806784076616168
1686052887984800300,2.60180029296875,0.00010471975838299841,0.0015009831404313445,0.0002617993741296232
1686052888004800300,2.62180029296875,0.00006981316983001307,-0.0003316125657875091,-0.0016929693520069122
1686052888024800300,2.64180029296875,0.0002617993741296232,0.00038397242315113544,-0.0009773843921720982
1686052888044800300,2.66180029296875,0.0009250245057046413,0.0007504915702156723,-0.00010471975838299841
1686052888064800300,2.68180029296875,-0.000017453292457503267,-0.0003665191470645368,-0.00040142572834156454
1686052888084800300,2.70180029296875,0.00003490658491500653,-0.000052359879191499203,0.00043633230961859226
1686052888104800300,2.72180029296875,0.00008726646046852693,-0.00062831852119416,0.00012217304902151227
1686052888124800300,2.74180029296875,0.00029670598451048136,0.00010471975838299841,0.00006981316983001307
1686052888144800300,2.76180029296875,-0.00008726646046852693,-0.00008726646046852693,-0.0009773843921720982
1686052888164800300,2.78180029296875,-0.00040142572834156454,0.00038397242315113544,-0.0015882495790719986
1686052888184800300,2.80180029296875,0.0005585053586401045,0.0019198621157556772,0.0009773843921720982
1686052888204800300,2.82180029296875,-0.00017453292093705386,0.0006981316837482154,-0.0005759586347267032
1686052888224800300,2.84180029296875,-0.0002617993741296232,0.00015707963029854,-0.00017453292093705386
1686052888244800300,2.86180029296875,0.00003490658491500653,-0.00045378561480902135,-0.0011344640515744686
1686052888264800300,2.88180029296875,-0.00013962633966002613,0.0015707963611930609,0.00024434609804302454
1686052888284800300,2.90180029296875,-0.0005934119690209627,0.00008726646046852693,-0.00013962633966002613
1686052888304800300,2.92180029296875,-0.0005410520825535059,-0.0005410520825535059,0.00012217304902151227
1686052888324800300,2.94180029296875,-0.00027925267932005227,0.00019198621157556772,-0.001343903481028974
1686052888344800300,2.96180029296875,-0.0008726646192371845,0.0008377580670639873,-0.0009948377264663577
1686052888364800300,2.98180029296875,0.00043633230961859226,0.00019198621157556772,-0.0009773843921720982
1686052888384800300,3.00180029296875,0.00012217304902151227,-0.00008726646046852693,-0.0005061454721726477
1686052888404800300,3.02180029296875,0.00015707963029854,0.00006981316983001307,-0.0008552113431505859
1686052888424800300,3.04180029296875,-0.00019198621157556772,-0.000052359879191499203,-0.00024434609804302454
1686052888444800300,3.06180029296875,-0.00010471975838299841,-0.00008726646046852693,-0.00040142572834156454
1686052888464800300,3.08180029296875,-0.00003490658491500653,0.0006108652451075613,0.0005235987482592463
1686052888484800300,3.10180029296875,-0.00047123889089562,0.0008552113431505859,-0.0005759586347267032
1686052888504800300,3.12180029296875,-0.00022689280740451068,0.00013962633966002613,-0.0008726646192371845
1686052888524800300,3.14180029296875,0.0006108652451075613,-0.00047123889089562,-0.001117010717280209
1686052888544800300,3.16180029296875,-0.00017453292093705386,0.0002617993741296232,0.00041887903353199363
1686052888564800300,3.18180029296875,0.00031415926059708,-0.00038397242315113544,-0.0008028514566831291
1686052888584800300,3.20180029296875,-0.00040142572834156454,-0.00041887903353199363,0.000715585018042475
1686052888604800300,3.22180029296875,-0.000017453292457503267,-0.000017453292457503267,-0.00094247778179124
1686052888624800300,3.24180029296875,-0.00015707963029854,-0.00017453292093705386,-0.0005061454721726477
1686052888644800300,3.26180029296875,0.00029670598451048136,0.00029670598451048136,0.0006981316837482154
1686052888664800300,3.28180029296875,-0.00017453292093705386,0.00013962633966002613,-0.00024434609804302454
1686052888684800300,3.30180029296875,0.00012217304902151227,0.00027925267932005227,0.0008203047327697277
1686052888704800300,3.32180029296875,-0.00006981316983001307,0.00043633230961859226,-0.0006632251315750182
1686052888724800300,3.34180029296875,-0.00017453292093705386,0.000017453292457503267,0.00019198621157556772
1686052888744800300,3.36180029296875,0.0007853981805965304,-0.00017453292093705386,0.00022689280740451068
1686052888764800300,3.38180029296875,-0.00043633230961859226,0.00038397242315113544,0.0003316125657875091
1686052888784800300,3.40180029296875,-0.00015707963029854,0.00038397242315113544,0.00006981316983001307
1686052888804800300,3.42180029296875,-0.00010471975838299841,0.00040142572834156454,-0.00010471975838299841
1686052888824800300,3.44180029296875,-0.00006981316983001307,-0.0008377580670639873,-0.00062831852119416
1686052888844800300,3.46180029296875,-0.0007504915702156723,-0.0005759586347267032,-0.0005410520825535059
1686052888864800300,3.48180029296875,0.00038397242315113544,0.000017453292457503267,0.0017278759041801095
1686052888884800300,3.50180029296875,-0.00038397242315113544,0.00017453292093705386,-0.00045378561480902135
1686052888904800300,3.52180029296875,0.000017453292457503267,-0.0009250245057046413,-0.0008552113431505859
1686052888924800300,3.54180029296875,0.00031415926059708,0.0006108652451075613,0.0006981316837482154
1686052888944800300,3.56180029296875,-0.000017453292457503267,0.0006632251315750182,-0.0006806784076616168
1686052888964800300,3.58180029296875,-0.00003490658491500653,0.00006981316983001307,-0.0007504915702156723
1686052888984800300,3.60180029296875,-0.00015707963029854,0.000017453292457503267,0.0006457717972807586
1686052889004800300,3.62180029296875,0.00010471975838299841,0.00038397242315113544,-0.0016755161341279745
1686052889024800300,3.64180029296875,-0.00020943951676599681,0.00020943951676599681,-0.0006981316837482154
1686052889044800300,3.66180029296875,-0.00024434609804302454,-0.00017453292093705386,-0.00022689280740451068
1686052889064800300,3.68180029296875,0.00024434609804302454,-0.00015707963029854,-0.00006981316983001307
1686052889084800300,3.70180029296875,-0.00017453292093705386,0.00013962633966002613,-0.00013962633966002613
1686052889104800300,3.72180029296875,-0.00040142572834156454,0.000017453292457503267,0.00017453292093705386
1686052889124800300,3.74180029296875,0.000017453292457503267,-0.0010995573829859495,0.00010471975838299841
1686052889144800300,3.76180029296875,0.000052359879191499203,-0.0008377580670639873,0.00010471975838299841
1686052889164800300,3.78180029296875,0.00013962633966002613,-0.0005061454721726477,-0.00062831852119416
1686052889184800300,3.80180029296875,-0.00013962633966002613,-0.00024434609804302454,0.00062831852119416
1686052889204800300,3.82180029296875,0.0002617993741296232,0.0010122909443452954,0.0006632251315750182
1686052889224800300,3.84180029296875,0.00013962633966002613,-0.00031415926059708,-0.00010471975838299841
1686052889244800300,3.86180029296875,-0.00027925267932005227,-0.00006981316983001307,0.00012217304902151227
1686052889264800300,3.88180029296875,-0.000052359879191499203,-0.00038397242315113544,0.0003490658418741077
1686052889284800300,3.90180029296875,-0.00017453292093705386,0.0013089969288557768,0.002024581888690591
1686052889304800300,3.92180029296875,-0.00013962633966002613,-0.0006632251315750182,-0.0008901178953237832
1686052889324800300,3.94180029296875,-0.000052359879191499203,0.00015707963029854,0.000715585018042475
1686052889344802000,3.961802001953125,-0.00012217304902151227,0.0008203047327697277,-0.000017453292457503267
1686052889364800300,3.98180029296875,0.00027925267932005227,0.0005235987482592463,0.0008552113431505859
1686052889384800300,4.00180029296875,-0.00019198621157556772,-0.00038397242315113544,-0.00008726646046852693
1686052889404800300,4.02180029296875,-0.00017453292093705386,0.000017453292457503267,-0.00013962633966002613
1686052889424800300,4.04180029296875,-0.00024434609804302454,-0.00043633230961859226,-0.0006457717972807586
1686052889444800300,4.06180029296875,0.0003490658418741077,0.000017453292457503267,0.0007679448463022709
1686052889464800300,4.08180029296875,-0.00012217304902151227,-0.0008203047327697277,-0.0008203047327697277
1686052889484800300,4.10180029296875,-0.0003490658418741077,-0.00012217304902151227,-0.0016929693520069122
1686052889504800300,4.12180029296875,-0.0005759586347267032,-0.000017453292457503267,-0.00125663704238832
1686052889524800300,4.14180029296875,-0.00020943951676599681,-0.0004886921960860491,0.0007853981805965304
1686052889544800300,4.16180029296875,0.00043633230961859226,-0.00006981316983001307,-0.00012217304902151227
1686052889564800300,4.18180029296875,-0.00006981316983001307,-0.000052359879191499203,-0.00012217304902151227
1686052889584800300,4.20180029296875,0.0005759586347267032,-0.00045378561480902135,-0.0008028514566831291
1686052889604800300,4.22180029296875,-0.00024434609804302454,0.0006457717972807586,0.0005759586347267032
1686052889624800300,4.24180029296875,-0.00029670598451048136,-0.0008901178953237832,0.00125663704238832
1686052889644800300,4.26180029296875,-0.00040142572834156454,-0.0007504915702156723,-0.0003490658418741077
1686052889664800300,4.28180029296875,-0.00015707963029854,0.0003316125657875091,-0.0005235987482592463
1686052889684800300,4.30180029296875,0.00012217304902151227,-0.00013962633966002613,-0.0008377580670639873
1686052889704800300,4.32180029296875,-0.00019198621157556772,-0.00027925267932005227,-0.0007853981805965304
1686052889724800300,4.34180029296875,-0.00022689280740451068,-0.000052359879191499203,-0.0012915435945615172
1686052889744800300,4.36180029296875,0.00003490658491500653,-0.000017453292457503267,-0.0010821041651070118
1686052889764800300,4.38180029296875,-0.00003490658491500653,-0.00062831852119416,0.00022689280740451068
1686052889784800300,4.40180029296875,-0.00027925267932005227,0.00045378561480902135,0.0003490658418741077
1686052889804800300,4.42180029296875,0.00015707963029854,0.00006981316983001307,-0.00022689280740451068
1686052889824800300,4.44180029296875,0.0006632251315750182,-0.00022689280740451068,0.00040142572834156454
1686052889844800300,4.46180029296875,0.00010471975838299841,0.00040142572834156454,-0.00008726646046852693
1686052889864800300,4.48180029296875,-0.00015707963029854,-0.00012217304902151227,-0.0010471974965184927
1686052889884800300,4.50180029296875,0.0002617993741296232,-0.000017453292457503267,-0.00041887903353199363
1686052889904800300,4.52180029296875,-0.00024434609804302454,-0.00003490658491500653,-0.0014660765882581472
1686052889924800300,4.54180029296875,-0.00013962633966002613,-0.0003490658418741077,-0.0005235987482592463
1686052889944800300,4.56180029296875,0.00020943951676599681,-0.0006457717972807586,-0.00029670598451048136
1686052889964800300,4.58180029296875,0.00040142572834156454,-0.0003490658418741077,-0.00094247778179124
1686052889984800300,4.60180029296875,-0.00038397242315113544,-0.0009250245057046413,0
1686052890004800300,4.62180029296875,-0.0003490658418741077,-0.00047123889089562,0.000715585018042475
1686052890024800300,4.64180029296875,0.00008726646046852693,0.0011693706037476659,0.0007853981805965304
1686052890044800300,4.66180029296875,0.00020943951676599681,-0.00041887903353199363,-0.0003316125657875091
1686052890064800300,4.68180029296875,0.00031415926059708,-0.0005759586347267032,0.00010471975838299841
1686052890084800300,4.70180029296875,0,0.00019198621157556772,0.0005235987482592463
1686052890104800300,4.72180029296875,0.00047123889089562,-0.00020943951676599681,-0.00029670598451048136
1686052890124800300,4.74180029296875,-0.000052359879191499203,-0.0008028514566831291,-0.0008901178953237832
1686052890144800300,4.76180029296875,-0.00003490658491500653,0.0011868239380419254,0.0010995573829859495
1686052890164800300,4.78180029296875,0.00043633230961859226,0.0004886921960860491,0.00125663704238832
1686052890184800300,4.80180029296875,-0.00024434609804302454,-0.0005585053586401045,-0.0010646508308127522
1686052890204800300,4.82180029296875,-0.00010471975838299841,-0.0009075712296180427,0.0007679448463022709
1686052890224800300,4.84180029296875,0,0.00006981316983001307,-0.00010471975838299841
1686052890244800300,4.86180029296875,-0.00012217304902151227,-0.0003316125657875091,0.0009599310578778386
1686052890264800300,4.88180029296875,-0.000052359879191499203,0.0006981316837482154,0.00019198621157556772
1686052890284800300,4.90180029296875,0.0003665191470645368,0.00003490658491500653,0.00043633230961859226
1686052890304800300,4.92180029296875,-0.00017453292093705386,-0.00015707963029854,-0.0012740903766825795
1686052890324800300,4.94180029296875,0.0008203047327697277,0.00013962633966002613,0.00024434609804302454
1686052890344800300,4.96180029296875,-0.00013962633966002613,-0.001343903481028974,0.0005585053586401045
1686052890364800300,4.98180029296875,0.0003490658418741077,-0.0006981316837482154,0.0008726646192371845
1686052890384800300,5.00180029296875,0,-0.00010471975838299841,0.00013962633966002613
1686052890404800300,5.02180029296875,-0.00012217304902151227,0.00038397242315113544,0.0005585053586401045
1686052890424800300,5.04180029296875,-0.00013962633966002613,0.0006108652451075613,0.00017453292093705386
1686052890444800300,5.06180029296875,-0.00019198621157556772,0.00017453292093705386,0.00019198621157556772
1686052890464800300,5.08180029296875,-0.000052359879191499203,-0.00020943951676599681,-0.0007504915702156723
1686052890484800300,5.10180029296875,-0.00010471975838299841,-0.0008901178953237832,-0.0008901178953237832
1686052890504800300,5.12180029296875,-0.000052359879191499203,0.0009075712296180427,0.0003490658418741077
1686052890524800300,5.14180029296875,-0.00008726646046852693,0.00010471975838299841,-0.0013089969288557768
1686052890544800300,5.16180029296875,-0.00013962633966002613,0.00027925267932005227,0.00143117003608495
1686052890564800300,5.18180029296875,-0.00015707963029854,0.00012217304902151227,-0.0013788101496174932
1686052890584800300,5.20180029296875,0.00031415926059708,0,-0.00010471975838299841
1686052890604800300,5.22180029296875,0.0006108652451075613,0.0010122909443452954,0.000017453292457503267
1686052890624802000,5.241802001953125,-0.0006632251315750182,-0.00043633230961859226,0.00047123889089562
1686052890644802000,5.261802001953125,0.00008726646046852693,-0.00031415926059708,-0.00045378561480902135
1686052890664800300,5.28180029296875,0.00012217304902151227,-0.000052359879191499203,0.00031415926059708
1686052890684802000,5.301802001953125,-0.00013962633966002613,-0.00040142572834156454,0.00013962633966002613
1686052890704800300,5.32180029296875,0.0002617993741296232,-0.0004886921960860491,-0.0008028514566831291
1686052890724800300,5.34180029296875,0.0002617993741296232,-0.00022689280740451068,0.0003316125657875091
1686052890744800300,5.36180029296875,0.00010471975838299841,-0.0008203047327697277,-0.0008377580670639873
1686052890764800300,5.38180029296875,0.0003665191470645368,0.0008552113431505859,0.00143117003608495
1686052890784800300,5.40180029296875,-0.00012217304902151227,-0.0003316125657875091,-0.0017627825727686286
1686052890804800300,5.42180029296875,-0.0006632251315750182,-0.00013962633966002613,-0.001029744278639555
1686052890824800300,5.44180029296875,0.00015707963029854,-0.0006806784076616168,-0.0012217304902151227
1686052890844800300,5.46180029296875,-0.00006981316983001307,0.0014137167017906904,0.00029670598451048136
1686052890864800300,5.48180029296875,-0.0005759586347267032,0.0007679448463022709,0.0012391837080940604
1686052890884800300,5.50180029296875,-0.00010471975838299841,-0.0005759586347267032,0.00027925267932005227
1686052890904800300,5.52180029296875,-0.00040142572834156454,-0.0009250245057046413,-0.0005585053586401045
1686052890924800300,5.54180029296875,0.00029670598451048136,-0.0009250245057046413,-0.0018675023457035422
1686052890944800300,5.56180029296875,-0.00012217304902151227,-0.00012217304902151227,-0.00040142572834156454
1686052890964800300,5.58180029296875,0.00008726646046852693,0.0005061454721726477,0.0016231562476605177
1686052890984800300,5.60180029296875,0.0009075712296180427,0.0007679448463022709,0.0008901178953237832
1686052891004800300,5.62180029296875,0.00024434609804302454,0.0007853981805965304,0.0008552113431505859
1686052891024800300,5.64180029296875,0.00015707963029854,-0.00043633230961859226,-0.000715585018042475
1686052891044800300,5.66180029296875,-0.00041887903353199363,0.0002617993741296232,-0.0019024088978767395
1686052891064800300,5.68180029296875,0.0005410520825535059,-0.00015707963029854,-0.00029670598451048136
1686052891084800300,5.70180029296875,0.00017453292093705386,0.00043633230961859226,-0.0005235987482592463
1686052891104800300,5.72180029296875,0.0003316125657875091,-0.0006806784076616168,0
1686052891124800300,5.74180029296875,0.0003316125657875091,-0.00062831852119416,-0.0005410520825535059
1686052891144800300,5.76180029296875,-0.00038397242315113544,0.0003316125657875091,-0.0008726646192371845
1686052891164800300,5.78180029296875,-0.000052359879191499203,-0.0018325956771150231,-0.001658062799833715
1686052891184800300,5.80180029296875,-0.0004886921960860491,0.0005759586347267032,0.000052359879191499203
1686052891204800300,5.82180029296875,-0.0003490658418741077,-0.0005585053586401045,0.000715585018042475
1686052891224800300,5.84180029296875,-0.00017453292093705386,0.00040142572834156454,0.00041887903353199363
1686052891244800300,5.86180029296875,0.0003665191470645368,0.0006981316837482154,0.00010471975838299841
1686052891264800300,5.88180029296875,0.0005759586347267032,-0.0002617993741296232,0.0016231562476605177
1686052891284800300,5.90180029296875,0,0.00013962633966002613,-0.0005061454721726477
1686052891304800300,5.92180029296875,-0.00012217304902151227,0.0011693706037476659,-0.00027925267932005227
1686052891324800300,5.94180029296875,-0.00022689280740451068,0.00045378561480902135,-0.000715585018042475
1686052891344800300,5.96180029296875,0.0003316125657875091,0.0010471974965184927,0.00043633230961859226
1686052891364800300,5.98180029296875,-0.00008726646046852693,-0.0005061454721726477,-0.00020943951676599681
1686052891384800300,6.00180029296875,-0.000052359879191499203,-0.0009250245057046413,0.00047123889089562
1686052891404802000,6.021802001953125,0.00003490658491500653,-0.0006806784076616168,0.00022689280740451068
1686052891424800300,6.04180029296875,0.00020943951676599681,-0.00027925267932005227,-0.00029670598451048136
1686052891444800300,6.06180029296875,0.00015707963029854,-0.00047123889089562,0.00029670598451048136
1686052891464800300,6.08180029296875,0.0009250245057046413,-0.00045378561480902135,-0.00188495556358248
1686052891484800300,6.10180029296875,0.000052359879191499203,0.0006632251315750182,0.00010471975838299841
1686052891504800300,6.12180029296875,0.00040142572834156454,0.00020943951676599681,-0.0005061454721726477
1686052891524800300,6.14180029296875,-0.0006108652451075613,-0.00047123889089562,-0.00020943951676599681
1686052891544800300,6.16180029296875,-0.00012217304902151227,-0.00027925267932005227,-0.0006108652451075613
1686052891564800300,6.18180029296875,-0.0011344640515744686,0.000052359879191499203,-0.00094247778179124
1686052891584800300,6.20180029296875,-0.000017453292457503267,-0.0008552113431505859,-0.0012217304902151227
1686052891604800300,6.22180029296875,-0.00015707963029854,-0.00040142572834156454,0
1686052891624800300,6.24180029296875,-0.00012217304902151227,-0.0005759586347267032,-0.0018500490114092827
1686052891644800300,6.26180029296875,0.00017453292093705386,0.0005934119690209627,0.0009948377264663577
1686052891664800300,6.28180029296875,-0.00017453292093705386,-0.00024434609804302454,-0.0006108652451075613
1686052891684800300,6.30180029296875,-0.00020943951676599681,0.00020943951676599681,0.0009773843921720982
1686052891704800300,6.32180029296875,0.00027925267932005227,-0.0003490658418741077,0.0008726646192371845
1686052891724802000,6.341802001953125,0.0002617993741296232,0.001343903481028974,-0.0006632251315750182
1686052891744800300,6.36180029296875,-0.0003316125657875091,-0.0008726646192371845,-0.0014137167017906904
1686052891764800300,6.38180029296875,0,-0.00010471975838299841,0.0006806784076616168
1686052891784800300,6.40180029296875,0.00003490658491500653,0.00027925267932005227,0.00038397242315113544
1686052891804800300,6.42180029296875,-0.00012217304902151227,0.00008726646046852693,-0.00029670598451048136
1686052891824800300,6.44180029296875,-0.00012217304902151227,-0.0008028514566831291,-0.00043633230961859226
1686052891844800300,6.46180029296875,0.0006457717972807586,-0.00019198621157556772,-0.00205948855727911
1686052891864800300,6.48180029296875,-0.00012217304902151227,-0.00003490658491500653,0.0005061454721726477
1686052891884800300,6.50180029296875,0.00027925267932005227,0.000017453292457503267,0.0004886921960860491
1686052891904800300,6.52180029296875,-0.00041887903353199363,0.0009250245057046413,0.0005759586347267032
1686052891924800300,6.54180029296875,-0.12884020805358887,-0.0015358896926045418,-0.0013264502631500363
1686052891944800300,6.56180029296875,-0.33777356147766113,-0.0005061454721726477,0.00031415926059708
1686052891964800300,6.58180029296875,-0.07855726778507233,-0.0008901178953237832,0.00013962633966002613
1686052891984800300,6.60180029296875,-0.041172318160533905,0.00019198621157556772,-0.0004886921960860491
1686052892004800300,6.62180029296875,-0.16205382347106934,-0.0014486232539638877,-0.0016929693520069122
1686052892024800300,6.64180029296875,-0.09536478668451309,-0.0010995573829859495,-0.00027925267932005227
1686052892044800300,6.66180029296875,-0.16125096380710602,-0.0011868239380419254,0.0006806784076616168
1686052892064800300,6.68180029296875,-0.16685347259044647,-0.0023911010939627886,0.00008726646046852693
1686052892084800300,6.70180029296875,-0.13976596295833588,-0.0014486232539638877,-0.0012042771559208632
1686052892104800300,6.72180029296875,-0.18311993777751923,-0.0009250245057046413,0.0010122909443452954
1686052892124800300,6.74180029296875,-0.18446384370326996,-0.0011519172694534063,0.0006632251315750182
1686052892144800300,6.76180029296875,-0.17270033061504364,-0.0010646508308127522,0.0009599310578778386
1686052892164800300,6.78180029296875,-0.18830357491970062,0.00015707963029854,0.0005061454721726477
1686052892184800300,6.80180029296875,-0.19394098222255707,-0.001117010717280209,0.00027925267932005227
1686052892204800300,6.82180029296875,-0.20317377150058746,-0.001658062799833715,0.0005934119690209627
1686052892224800300,6.84180029296875,-0.2543817460536957,-0.00043633230961859226,-0.00045378561480902135
1686052892244800300,6.86180029296875,-0.2540850341320038,-0.0036826448049396276,-0.00012217304902151227
1686052892264800300,6.88180029296875,-0.27344071865081787,-0.0017104226863011718,-0.00038397242315113544
1686052892284800300,6.90180029296875,-0.29447194933891296,-0.0008203047327697277,0.0009250245057046413
1686052892304800300,6.92180029296875,-0.2834240198135376,-0.0022165682166814804,0.0021118484437465668
1686052892324800300,6.94180029296875,-0.2932153046131134,-0.002460914198309183,-0.001483529806137085
1686052892344800300,6.96180029296875,-0.3004409670829773,-0.003525565145537257,0.0014660765882581472
1686052892364800300,6.98180029296875,-0.3076840937137604,-0.0015707963611930609,0.0015707963611930609
1686052892384800300,7.00180029296875,-0.30656707286834717,-0.0014137167017906904,0.001745329238474369
1686052892404800300,7.02180029296875,-0.28553587198257446,-0.0023561944253742695,0.002949606394395232
1686052892424800300,7.04180029296875,-0.29626962542533875,-0.0011693706037476659,0.0020769417751580477
1686052892444800300,7.06180029296875,-0.28558823466300964,-0.0005235987482592463,-0.0007504915702156723
1686052892464800300,7.08180029296875,-0.29305824637413025,-0.002024581888690591,-0.00017453292093705386
1686052892484800300,7.10180029296875,-0.3156253397464752,-0.002809980185702443,0.0008901178953237832
1686052892504800300,7.12180029296875,-0.2649235129356384,-0.002949606394395232,0.0008901178953237832
1686052892524800300,7.14180029296875,-0.2762681543827057,-0.0012915435945615172,0.002478367416188121
1686052892544800300,7.16180029296875,-0.2738421559333801,-0.0012391837080940604,0.0007679448463022709
1686052892564800300,7.18180029296875,-0.27200955152511597,-0.0014137167017906904,0.00029670598451048136
1686052892584800300,7.20180029296875,-0.28820621967315674,-0.0008901178953237832,-0.001029744278639555
1686052892604800300,7.22180029296875,-0.2575407922267914,-0.002809980185702443,0.00040142572834156454
1686052892624800300,7.24180029296875,-0.2689377963542938,-0.0016057029133662581,0.0010646508308127522
1686052892644800300,7.26180029296875,-0.25933846831321716,-0.0015707963611930609,-0.00062831852119416
1686052892664800300,7.28180029296875,-0.29138273000717163,-0.0008726646192371845,0.0008901178953237832
1686052892684800300,7.30180029296875,-0.3104417026042938,-0.0033335788175463676,0.0016929693520069122
1686052892704800300,7.32180029296875,-0.24274039268493652,-0.002722713630646467,0.0005759586347267032
1686052892724800300,7.34180029296875,-0.2402620166540146,-0.0019547687843441963,0.001343903481028974
1686052892744800300,7.36180029296875,-0.22537437081336975,-0.0009250245057046413,0.00041887903353199363
1686052892764800300,7.38180029296875,-0.2699500620365143,-0.0021816615480929613,0.0008901178953237832
1686052892784800300,7.40180029296875,-0.3098657429218292,-0.0019896754529327154,0.00038397242315113544
1686052892804800300,7.42180029296875,-0.2843490540981293,-0.00043633230961859226,0.0021816615480929613
1686052892824800300,7.44180029296875,-0.28005552291870117,-0.0017802357906475663,0.0005235987482592463
1686052892844800300,7.46180029296875,-0.26949629187583923,-0.0024434609804302454,0.0009773843921720982
1686052892864800300,7.48180029296875,-0.26335272192955017,-0.00031415926059708,0.002373647876083851
1686052892884800300,7.50180029296875,-0.28267353773117065,-0.0017802357906475663,0.00015707963029854
1686052892904800300,7.52180029296875,-0.3079633414745331,-0.0014660765882581472,0.0017627825727686286
1686052892924800300,7.54180029296875,-0.3631681203842163,-0.003228859044611454,-0.00020943951676599681
1686052892944800300,7.56180029296875,-0.3574259877204895,-0.0011868239380419254,0.0019547687843441963
1686052892964800300,7.58180029296875,-0.32621949911117554,-0.0018675023457035422,-0.00038397242315113544
1686052892984800300,7.60180029296875,-0.37002724409103394,-0.0022165682166814804,0.0013788101496174932
1686052893004800300,7.62180029296875,-0.41580724716186523,-0.0034732052590698004,0.0012915435945615172
1686052893024800300,7.64180029296875,-0.38407716155052185,-0.004206243436783552,0.0016929693520069122
1686052893044800300,7.66180029296875,-0.35407495498657227,-0.0021816615480929613,0.0016406094655394554
1686052893064800300,7.68180029296875,-0.38231438398361206,-0.003577925032004714,0.0010122909443452954
1686052893084800300,7.70180029296875,-0.5167396068572998,-0.006248278543353081,-0.0008377580670639873
1686052893104800300,7.72180029296875,-0.6292610168457031,-0.006387905217707157,0.0016755161341279745
1686052893124800300,7.74180029296875,-0.45863762497901917,-0.0034732052590698004,0.004049163777381182
1686052893144800300,7.76180029296875,-0.3814242482185364,-0.00296705961227417,0.00376991112716496
1686052893164800300,7.78180029296875,-0.4026648998260498,-0.0020420351065695286,-0.0016231562476605177
1686052893184800300,7.80180029296875,-0.46184903383255005,-0.003001966280862689,0.0013089969288557768
1686052893204800300,7.82180029296875,-0.5042605400085449,-0.003752457909286022,0.002460914198309183
1686052893224800300,7.84180029296875,-0.45207518339157104,-0.0019547687843441963,0.0039618974551558495
1686052893244800300,7.86180029296875,-0.465514212846756,-0.003804817795753479,0.0016406094655394554
1686052893264800300,7.88180029296875,-0.5112243890762329,-0.004625122528523207,0.0021118484437465668
1686052893284800300,7.90180029296875,-0.6202551126480103,-0.004433136433362961,0.004694935865700245
1686052893304800300,7.92180029296875,-0.5585576891899109,-0.005654866807162762,0.001343903481028974
1686052893324800300,7.94180029296875,-0.48310714960098267,-0.003089232835918665,0.0019896754529327154
1686052893344800300,7.96180029296875,-0.4703138768672943,-0.0017278759041801095,0.0025307273026555777
1686052893364800300,7.98180029296875,-0.47420597076416016,-0.002548180753365159,0.0024260077625513077
1686052893384800300,8.00180029296875,-0.5700594186782837,-0.006998770404607058,0.0015009831404313445
1686052893404800300,8.02180029296875,-0.46326273679733276,-0.00376991112716496,0.0026354470755904913
1686052893424800300,8.04180029296875,-0.36768850684165955,-0.0035953782498836517,0.0010821041651070118
1686052893444800300,8.06180029296875,-0.39995965361595154,-0.0021816615480929613,0.0007853981805965304
1686052893464800300,8.08180029296875,-0.42210787534713745,-0.0036477381363511086,-0.0006457717972807586
1686052893484800300,8.10180029296875,-0.4473802447319031,-0.004625122528523207,-0.00013962633966002613
1686052893504800300,8.12180029296875,-0.3972369432449341,-0.002146754879504442,0.0010646508308127522
1686052893524800300,8.14180029296875,-0.41489967703819275,-0.003979350905865431,0.0017104226863011718
1686052893544800300,8.16180029296875,-0.4533492624759674,-0.0023911010939627886,0.00376991112716496
1686052893564800300,8.18180029296875,-0.48603928089141846,-0.003996803890913725,0.00457276264205575
1686052893584800300,8.20180029296875,-0.4709247350692749,-0.0029321531765162945,0.001483529806137085
1686052893604800300,8.22180029296875,-0.4691968560218811,-0.003455751808360219,0.0006108652451075613
1686052893624800300,8.24180029296875,-0.4809429347515106,-0.003351032268255949,0.004328416660428047
1686052893644800300,8.26180029296875,-0.5166523456573486,-0.0031241392716765404,0.004171337001025677
1686052893664800300,8.28180029296875,-0.523720920085907,-0.003054326167330146,0.0021642083302140236
1686052893684800300,8.30180029296875,-0.4790405035018921,-0.002809980185702443,0.003926991019397974
1686052893704800300,8.32180029296875,-0.4982216954231262,-0.0050090947188436985,0.0009773843921720982
1686052893724800300,8.34180029296875,-0.5016250610351562,-0.003944444004446268,0.002286381321027875
1686052893744800300,8.36180029296875,-0.48602184653282166,-0.0014486232539638877,0.004153883550316095
1686052893764800300,8.38180029296875,-0.46933647990226746,-0.005567600484937429,-0.00024434609804302454
1686052893784800300,8.40180029296875,-0.49616220593452454,-0.0036128314677625895,0.0009250245057046413
1686052893804800300,8.42180029296875,-0.490140825510025,-0.0029321531765162945,0.001658062799833715
1686052893824800300,8.44180029296875,-0.4749564528465271,-0.004485496319830418,-0.0005410520825535059
1686052893844800300,8.46180029296875,-0.4395437240600586,-0.0029845130629837513,0.0007504915702156723
1686052893864800300,8.48180029296875,-0.42149701714515686,-0.003909537568688393,0.000052359879191499203
1686052893884800300,8.50180029296875,-0.42530182003974915,-0.0029321531765162945,0.0015882495790719986
1686052893904800300,8.52180029296875,-0.4515515863895416,-0.0021642083302140236,0.0019198621157556772
1686052893924800300,8.54180029296875,-0.49434706568717957,-0.004206243436783552,0.0011693706037476659
1686052893944800300,8.56180029296875,-0.5214345455169678,-0.006911503616720438,0.00041887903353199363
1686052893964800300,8.58180029296875,-0.5340183973312378,-0.003630284918472171,0.0014486232539638877
1686052893984800300,8.60180029296875,-0.5577548742294312,-0.003508111694827676,0.0027576202992349863
1686052894004800300,8.62180029296875,-0.5483824610710144,-0.002007128670811653,0.0026703537441790104
1686052894024800300,8.64180029296875,-0.5304928421974182,-0.004502949304878712,0.004450589418411255
1686052894044800300,8.66180029296875,-0.47429323196411133,-0.00296705961227417,0.0005061454721726477
1686052894064800300,8.68180029296875,-0.44251078367233276,-0.007871435023844242,-0.0023911010939627886
1686052894084800300,8.70180029296875,-0.43453460931777954,-0.004188789986073971,-0.00020943951676599681
1686052894104800300,8.72180029296875,-0.47884854674339294,-0.003351032268255949,0.002914699725806713
1686052894124800300,8.74180029296875,-0.47802823781967163,-0.0019024088978767395,0.00457276264205575
1686052894144800300,8.76180029296875,-0.4337143301963806,-0.00331612559966743,0.002722713630646467
1686052894164800300,8.78180029296875,-0.4229107201099396,-0.00024434609804302454,0.003857177682220936
1686052894184800300,8.80180029296875,-0.4657760262489319,-0.0038920841179788113,0.00017453292093705386
1686052894204800300,8.82180029296875,-0.4836656451225281,-0.00376991112716496,0.0022689281031489372
1686052894224800300,8.84180029296875,-0.521905779838562,0.0011519172694534063,0.00548033369705081
1686052894244800300,8.86180029296875,-0.5205793380737305,-0.0037000980228185654,0.0024434609804302454
1686052894264800300,8.88180029296875,-0.5000542998313904,-0.0015009831404313445,0.005235987715423107
1686052894284800300,8.90180029296875,-0.4470835328102112,-0.0013613568153232336,0.002687806962057948
1686052894304800300,8.92180029296875,-0.3813718855381012,-0.002460914198309183,0.001745329238474369
1686052894324800300,8.94180029296875,-0.3179815411567688,-0.0019547687843441963,-0.0003665191470645368
1686052894344800300,8.96180029296875,-0.3373372256755829,-0.0017278759041801095,0.0006981316837482154
1686052894364800300,8.98180029296875,-0.3877772390842438,-0.0015533430268988013,0.00041887903353199363
1686052894384800300,9.00180029296875,-0.4017573297023773,-0.0007330382941290736,0.002548180753365159
1686052894404800300,9.02180029296875,-0.43771111965179443,-0.00012217304902151227,0.003001966280862689
1686052894424802000,9.041802001953124,-0.4280419945716858,-0.003508111694827676,0.0010995573829859495
1686052894444800300,9.06180029296875,-0.4118976891040802,-0.0032463124953210354,0.002827433403581381
1686052894464800300,9.08180029296875,-0.45355871319770813,-0.0012740903766825795,0.0026179938577115536
1686052894484800300,9.10180029296875,-0.4835260212421417,-0.0026179938577115536,0.0027052604127675295
1686052894504800300,9.12180029296875,-0.4490208625793457,-0.0013788101496174932,0.0047996556386351585
1686052894524800300,9.14180029296875,-0.3765198886394501,-0.002373647876083851,0.001029744278639555
1686052894544800300,9.16180029296875,-0.31267574429512024,-0.0018151424592360854,0.0017278759041801095
1686052894564800300,9.18180029296875,-0.27490681409835815,-0.0011344640515744686,0.002286381321027875
1686052894584800300,9.20180029296875,-0.2863561809062958,-0.00024434609804302454,-0.0009250245057046413
1686052894604800300,9.22180029296875,-0.30426323413848877,-0.0019024088978767395,0.001972222002223134
1686052894624800300,9.24180029296875,-0.2816612422466278,-0.0013788101496174932,0.0016406094655394554
1686052894644800300,9.26180029296875,-0.2146056890487671,-0.0019198621157556772,-0.00022689280740451068
1686052894664800300,9.28180029296875,-0.21121974289417267,-0.0010821041651070118,-0.0006632251315750182
1686052894684800300,9.30180029296875,-0.2315877377986908,-0.001518436474725604,0.0008203047327697277
1686052894704800300,9.32180029296875,-0.23982569575309753,-0.0010646508308127522,0.0003490658418741077
1686052894724800300,9.34180029296875,-0.2722190022468567,-0.002199114765971899,-0.001745329238474369
1686052894744800300,9.36180029296875,-0.2790781557559967,-0.0002617993741296232,0.001029744278639555
1686052894764802000,9.381802001953124,-0.2961125671863556,-0.0004886921960860491,0.0030194194987416267
1686052894784800300,9.40180029296875,-0.16372933983802795,-0.0009599310578778386,-0.0016755161341279745
1686052894804800300,9.42180029296875,-0.051539573818445206,-0.00012217304902151227,-0.0013962633674964309
1686052894824800300,9.44180029296875,0.00006981316983001307,-0.000052359879191499203,0.00031415926059708
1686052894844800300,9.46180029296875,0.0004886921960860491,-0.0006457717972807586,-0.001658062799833715
1686052894864800300,9.48180029296875,0.00017453292093705386,-0.0008028514566831291,-0.00062831852119416
1686052894884800300,9.50180029296875,-0.00012217304902151227,0.0009948377264663577,-0.0010821041651070118
1686052894904800300,9.52180029296875,-0.0005585053586401045,0.0010646508308127522,0.00038397242315113544
1686052894924800300,9.54180029296875,0,0.0010646508308127522,-0.0014137167017906904
1686052894944800300,9.56180029296875,-0.000017453292457503267,-0.00012217304902151227,0.0006806784076616168
1686052894964803600,9.581803466796876,0.00031415926059708,-0.002007128670811653,-0.0018151424592360854
1686052894984800300,9.60180029296875,-0.00006981316983001307,-0.00027925267932005227,-0.000052359879191499203
1686052895004800300,9.62180029296875,0.00010471975838299841,-0.0006806784076616168,-0.0004886921960860491
1686052895024800300,9.64180029296875,-0.00015707963029854,0.00010471975838299841,-0.0015358896926045418
1686052895044800300,9.66180029296875,-0.00017453292093705386,-0.0005410520825535059,-0.0009250245057046413
1686052895064800300,9.68180029296875,0.00020943951676599681,0.00019198621157556772,-0.0017278759041801095
1686052895084800300,9.70180029296875,0.00062831852119416,0,0.00010471975838299841
1686052895104800300,9.72180029296875,-0.000017453292457503267,0.0009599310578778386,-0.00027925267932005227
1686052895124800300,9.74180029296875,-0.0006981316837482154,-0.0007504915702156723,-0.0008552113431505859
1686052895144800300,9.76180029296875,0.00003490658491500653,-0.000052359879191499203,-0.0010122909443452954
1686052895164800300,9.78180029296875,-0.00010471975838299841,0.000017453292457503267,-0.0012740903766825795
1686052895184800300,9.80180029296875,0.00017453292093705386,0.0005410520825535059,-0.0012042771559208632
1686052895204800300,9.82180029296875,-0.00012217304902151227,-0.001029744278639555,-0.0013788101496174932
1686052895224800300,9.84180029296875,-0.000052359879191499203,0.0003316125657875091,-0.00143117003608495
1686052895244800300,9.86180029296875,-0.00012217304902151227,-0.00031415926059708,-0.0011693706037476659
1686052895264800300,9.88180029296875,-0.0005585053586401045,-0.00017453292093705386,-0.0006806784076616168
1686052895284800300,9.90180029296875,0.00015707963029854,-0.0003490658418741077,0.0003316125657875091
1686052895304800300,9.92180029296875,0.00020943951676599681,0.0008552113431505859,-0.0009948377264663577
1686052895324800300,9.94180029296875,-0.00006981316983001307,0.00024434609804302454,-0.0002617993741296232
1686052895344800300,9.96180029296875,0,-0.00013962633966002613,0
1686052895364800300,9.98180029296875,0.00012217304902151227,-0.00040142572834156454,-0.001483529806137085
1686052895384800300,10.00180029296875,-0.00006981316983001307,0.0008203047327697277,0.001658062799833715
1686052895404800300,10.02180029296875,-0.000052359879191499203,-0.00045378561480902135,-0.0003316125657875091
1686052895424800300,10.04180029296875,-0.00010471975838299841,-0.00047123889089562,-0.002600540639832616
1686052895444800300,10.06180029296875,-0.00012217304902151227,-0.0008203047327697277,0.00015707963029854
1686052895464800300,10.08180029296875,0.0003316125657875091,-0.0003316125657875091,-0.00045378561480902135
1686052895484800300,10.10180029296875,0.0007504915702156723,-0.0005061454721726477,-0.0016755161341279745
1686052895504800300,10.12180029296875,0.0003665191470645368,-0.00013962633966002613,0.00020943951676599681
1686052895524800300,10.14180029296875,0.00020943951676599681,0,-0.00006981316983001307
1686052895544800300,10.16180029296875,-0.00003490658491500653,0.0014660765882581472,0.00031415926059708
1686052895564800300,10.18180029296875,0.00040142572834156454,-0.0005410520825535059,-0.0012740903766825795
1686052895584800300,10.20180029296875,-0.00006981316983001307,-0.00040142572834156454,-0.0007330382941290736
1686052895604800300,10.22180029296875,0.00022689280740451068,0.00029670598451048136,-0.0009250245057046413
1686052895624800300,10.24180029296875,0.0003316125657875091,-0.0011693706037476659,-0.0011693706037476659
1686052895644800300,10.26180029296875,-0.00003490658491500653,0.000017453292457503267,-0.00003490658491500653
1686052895664802000,10.281802001953125,0.00017453292093705386,0.0007330382941290736,-0.00041887903353199363
1686052895684800300,10.30180029296875,0,-0.0005759586347267032,-0.00006981316983001307
1686052895704800300,10.32180029296875,-0.00041887903353199363,-0.0007679448463022709,-0.0005759586347267032
1686052895724800300,10.34180029296875,0.0003316125657875091,-0.00031415926059708,-0.000017453292457503267
1686052895744802000,10.361802001953125,0,0.00047123889089562,0.0003490658418741077
1686052895764800300,10.38180029296875,-0.000017453292457503267,0.0003490658418741077,-0.0003665191470645368
1686052895784800300,10.40180029296875,0.00029670598451048136,-0.0014486232539638877,-0.0010821041651070118
1686052895804800300,10.42180029296875,0.0003490658418741077,-0.0008552113431505859,-0.00038397242315113544
1686052895824800300,10.44180029296875,-0.00012217304902151227,-0.0008552113431505859,-0.0011519172694534063
1686052895844800300,10.46180029296875,0.00003490658491500653,-0.0012391837080940604,-0.0014137167017906904
1686052895864800300,10.48180029296875,0,-0.0007504915702156723,-0.001117010717280209
1686052895884800300,10.50180029296875,0.00027925267932005227,0.00006981316983001307,-0.0019547687843441963
1686052895904800300,10.52180029296875,-0.0005759586347267032,-0.0007853981805965304,0.00006981316983001307
1686052895924800300,10.54180029296875,0.00020943951676599681,-0.0005061454721726477,-0.0008726646192371845
1686052895944800300,10.56180029296875,0.00019198621157556772,-0.0016231562476605177,-0.0015533430268988013
1686052895964800300,10.58180029296875,-0.00006981316983001307,-0.00041887903353199363,0.00038397242315113544
1686052895984800300,10.60180029296875,0.00017453292093705386,0.000052359879191499203,-0.001343903481028974
1686052896004800300,10.62180029296875,0.0009599310578778386,-0.00022689280740451068,0.0003665191470645368
1686052896024800300,10.64180029296875,0.001029744278639555,-0.0017802357906475663,-0.0022165682166814804
1686052896044800300,10.66180029296875,0.0010646508308127522,0.0005759586347267032,0.0007853981805965304
1686052896064800300,10.68180029296875,0.0006108652451075613,-0.000715585018042475,-0.000715585018042475
1686052896084800300,10.70180029296875,-0.00003490658491500653,-0.0013962633674964309,-0.0011519172694534063
1686052896104800300,10.72180029296875,0.0008203047327697277,0.00006981316983001307,0.0004886921960860491
1686052896124800300,10.74180029296875,-0.000052359879191499203,-0.0007330382941290736,-0.000017453292457503267
1686052896144800300,10.76180029296875,-0.00012217304902151227,0.000017453292457503267,-0.00041887903353199363
1686052896164800300,10.78180029296875,-0.00010471975838299841,0.00029670598451048136,0.00020943951676599681
1686052896184800300,10.80180029296875,0.000052359879191499203,-0.00040142572834156454,-0.0008552113431505859
1686052896204800300,10.82180029296875,-0.00010471975838299841,-0.00031415926059708,0.0010646508308127522
1686052896224800300,10.84180029296875,0.0005759586347267032,0.0005061454721726477,0.0002617993741296232
1686052896244800300,10.86180029296875,-0.00024434609804302454,-0.00022689280740451068,-0.0021293016616255045
1686052896264800300,10.88180029296875,-0.0007853981805965304,0.0002617993741296232,-0.0010646508308127522
1686052896284800300,10.90180029296875,0.0011868239380419254,-0.00029670598451048136,-0.0006108652451075613
1686052896304800300,10.92180029296875,0.00003490658491500653,0.0004886921960860491,0.0010995573829859495
1686052896324800300,10.94180029296875,0.00038397242315113544,0.00062831852119416,-0.000017453292457503267
1686052896344800300,10.96180029296875,0.00010471975838299841,0.0009948377264663577,0.0008028514566831291
1686052896364800300,10.98180029296875,0.00031415926059708,-0.0009948377264663577,-0.0013788101496174932
1686052896384800300,11.00180029296875,-0.00010471975838299841,-0.00017453292093705386,0.00027925267932005227
1686052896404800300,11.02180029296875,-0.00015707963029854,-0.000052359879191499203,-0.0011344640515744686
1686052896424800300,11.04180029296875,0.0006981316837482154,0.0025656339712440968,0.0005235987482592463
1686052896444802000,11.061802001953126,-0.00010471975838299841,0.0019373154500499368,0.00125663704238832
1686052896464800300,11.08180029296875,0.00008726646046852693,0.000017453292457503267,-0.0014137167017906904
1686052896484800300,11.10180029296875,-0.00015707963029854,-0.0006632251315750182,-0.0011519172694534063
1686052896504800300,11.12180029296875,0.0002617993741296232,-0.0008377580670639873,-0.00022689280740451068
1686052896524800300,11.14180029296875,0.0005410520825535059,-0.00027925267932005227,0.000052359879191499203
1686052896544800300,11.16180029296875,0,0.00031415926059708,-0.0008028514566831291
1686052896564800300,11.18180029296875,0.0005585053586401045,-0.00003490658491500653,0.0007679448463022709
1686052896584800300,11.20180029296875,0,-0.0007679448463022709,-0.0011519172694534063
1686052896604800300,11.22180029296875,-0.00019198621157556772,-0.00029670598451048136,-0.0015533430268988013
1686052896624800300,11.24180029296875,-0.00062831852119416,-0.00020943951676599681,-0.0006108652451075613
1686052896644800300,11.26180029296875,0.00010471975838299841,-0.001343903481028974,0.00015707963029854
1686052896664800300,11.28180029296875,0.00015707963029854,-0.00038397242315113544,-0.00006981316983001307
1686052896684800300,11.30180029296875,0.00031415926059708,-0.00017453292093705386,-0.001029744278639555
1686052896704802000,11.321802001953126,0.0006108652451075613,-0.00027925267932005227,-0.0017104226863011718
1686052896724802000,11.341802001953125,0.00019198621157556772,-0.0009250245057046413,0.00006981316983001307
1686052896744800300,11.36180029296875,-0.00012217304902151227,-0.00019198621157556772,0
1686052896764802000,11.381802001953124,-0.00012217304902151227,-0.00040142572834156454,-0.0005759586347267032
1686052896784802000,11.401802001953126,-0.00012217304902151227,-0.00010471975838299841,-0.0009075712296180427
1686052896804800300,11.42180029296875,0.0008377580670639873,-0.000017453292457503267,-0.00022689280740451068
1686052896824800300,11.44180029296875,0.00031415926059708,-0.00031415926059708,-0.0012915435945615172
1686052896844800300,11.46180029296875,0.0003665191470645368,-0.0004886921960860491,-0.001658062799833715
1686052896864800300,11.48180029296875,0.000017453292457503267,-0.00013962633966002613,-0.00017453292093705386
1686052896884800300,11.50180029296875,0.00012217304902151227,0,-0.000017453292457503267
1686052896904800300,11.52180029296875,0.0004886921960860491,0.00043633230961859226,-0.0009599310578778386
1686052896924800300,11.54180029296875,0.00031415926059708,-0.0009250245057046413,-0.0016929693520069122
1686052896944800300,11.56180029296875,0.0005061454721726477,0.00040142572834156454,-0.00019198621157556772
1686052896964800300,11.58180029296875,-0.0003490658418741077,-0.00043633230961859226,-0.00013962633966002613
1686052896984800300,11.60180029296875,-0.00012217304902151227,-0.0021642083302140236,-0.002199114765971899
1686052897004800300,11.62180029296875,-0.000017453292457503267,-0.000715585018042475,-0.001518436474725604
1686052897024800300,11.64180029296875,-0.000052359879191499203,0.0012217304902151227,-0.00012217304902151227
1686052897044800300,11.66180029296875,-0.00038397242315113544,-0.0002617993741296232,-0.0012740903766825795
1686052897064800300,11.68180029296875,0.00008726646046852693,0.00020943951676599681,-0.00022689280740451068
1686052897084800300,11.70180029296875,-0.00012217304902151227,0.0007853981805965304,0.0005759586347267032
1686052897104800300,11.72180029296875,0.00008726646046852693,-0.0006457717972807586,-0.0008552113431505859
1686052897124800300,11.74180029296875,-0.000052359879191499203,-0.0002617993741296232,-0.0006806784076616168
1686052897144800300,11.76180029296875,0.00019198621157556772,0.00010471975838299841,-0.00094247778179124
1686052897164800300,11.78180029296875,0.00008726646046852693,-0.00038397242315113544,-0.0003665191470645368
1686052897184800300,11.80180029296875,-0.00006981316983001307,-0.001029744278639555,-0.0010646508308127522
1686052897204800300,11.82180029296875,0.0005585053586401045,-0.0003490658418741077,0.000017453292457503267
1686052897224800300,11.84180029296875,-0.0002617993741296232,-0.00125663704238832,-0.001518436474725604
1686052897244800300,11.86180029296875,0.000052359879191499203,-0.0015533430268988013,-0.0019024088978767395
1686052897264800300,11.88180029296875,-0.00024434609804302454,0.00029670598451048136,-0.00143117003608495
1686052897284800300,11.90180029296875,-0.00008726646046852693,-0.0008901178953237832,-0.0016929693520069122
1686052897304800300,11.92180029296875,-0.00010471975838299841,-0.0004886921960860491,0.00040142572834156454
1686052897324800300,11.94180029296875,0.0005410520825535059,0.0012042771559208632,0.0007679448463022709
1686052897344800300,11.96180029296875,0.00024434609804302454,0.0011693706037476659,-0.0003316125657875091
1686052897364800300,11.98180029296875,0.0005585053586401045,-0.0006457717972807586,-0.0014660765882581472
1686052897384800300,12.00180029296875,-0.000052359879191499203,-0.00015707963029854,-0.000052359879191499203
1686052897404800300,12.02180029296875,0.000017453292457503267,0,0.00012217304902151227
1686052897424800300,12.04180029296875,-0.00006981316983001307,-0.00010471975838299841,0.0010646508308127522
1686052897444802000,12.061802001953126,-0.0003490658418741077,0.0008377580670639873,0.0015707963611930609
1686052897464800300,12.08180029296875,0.00047123889089562,0.0020420351065695286,0.0008901178953237832
1686052897484800300,12.10180029296875,0.0005410520825535059,0.0011344640515744686,0.0011868239380419254
1686052897504800300,12.12180029296875,-0.00006981316983001307,0.0019373154500499368,0.002809980185702443
1686052897524800300,12.14180029296875,0.00031415926059708,0.0011519172694534063,0.0021293016616255045
1686052897544800300,12.16180029296875,-0.00013962633966002613,0.0008203047327697277,0.0026703537441790104
1686052897564800300,12.18180029296875,-0.00013962633966002613,0.0007330382941290736,0.003089232835918665
1686052897584800300,12.20180029296875,0.0010821041651070118,0.001518436474725604,0.003577925032004714
1686052897604800300,12.22180029296875,-0.0005759586347267032,0.00024434609804302454,0.0039618974551558495
1686052897624800300,12.24180029296875,-0.0005585053586401045,-0.0009075712296180427,0.006649704650044441
1686052897644800300,12.26180029296875,-0.00006981316983001307,-0.00013962633966002613,0.01202531810849905
1686052897664800300,12.28180029296875,-0.00027925267932005227,0,0.011763518676161766
1686052897684800300,12.30180029296875,-0.00012217304902151227,-0.004782202187925577,0.018727382645010948
1686052897704800300,12.32180029296875,-0.00027925267932005227,-0.004660028964281082,0.03087487444281578
1686052897724800300,12.34180029296875,-0.0006632251315750182,-0.00012217304902151227,0.06302383542060852
1686052897744800300,12.36180029296875,-0.0004886921960860491,-0.0041015236638486385,0.08801695704460144
1686052897764800300,12.38180029296875,-0.0012915435945615172,-0.0014137167017906904,0.09756390750408173
1686052897784800300,12.40180029296875,-0.0003665191470645368,-0.00040142572834156454,0.08485791087150574
1686052897804800300,12.42180029296875,-0.00012217304902151227,-0.00012217304902151227,0.06946410238742828
1686052897824800300,12.44180029296875,-0.0006806784076616168,-0.0002617993741296232,0.05475097894668579
1686052897844800300,12.46180029296875,-0.0016231562476605177,-0.0012217304902151227,0.05803219601511955
1686052897864800300,12.48180029296875,-0.0047996556386351585,-0.0009948377264663577,0.0639488622546196
1686052897884800300,12.50180029296875,-0.032271139323711395,-0.0024260077625513077,0.06644468754529953
1686052897904800300,12.52180029296875,-0.04796164855360985,-0.0041015236638486385,0.0990823432803154
1686052897924800300,12.54180029296875,-0.03701843321323395,-0.00205948855727911,0.18565067648887634
1686052897944800300,12.56180029296875,-0.0025656339712440968,-0.002286381321027875,0.29710739850997925
1686052897964800300,12.58180029296875,-0.0002617993741296232,-0.0015533430268988013,0.4000469148159027
1686052897984800300,12.60180029296875,-0.0008203047327697277,-0.004450589418411255,0.4519529938697815
1686052898004800300,12.62180029296875,-0.0049916417337954044,-0.006056292448192835,0.5070181488990784
1686052898024800300,12.64180029296875,-0.006928957067430019,-0.005777040030807257,0.5715604424476624
1686052898044800300,12.66180029296875,-0.0052534411661326885,-0.0046774824149906635,0.6513219475746155
1686052898064800300,12.68180029296875,-0.00769690191373229,-0.00724311638623476,0.7183775305747986
1686052898084800300,12.70180029296875,-0.011850785464048386,0.018901916220784187,0.7289891242980957
1686052898104800300,12.72180029296875,-0.051888637244701385,0.0045378562062978745,0.6603802442550659
1686052898124800300,12.74180029296875,-0.053564153611660004,0.004049163777381182,0.5494296550750732
1686052898144800300,12.76180029296875,-0.022183135151863098,0,0.4605400264263153
1686052898164800300,12.78180029296875,-0.019652407616376877,-0.004974188283085823,0.39531707763671875
1686052898184800300,12.80180029296875,-0.034086279571056366,-0.006422811653465033,0.3442312777042389
1686052898204800300,12.82180029296875,-0.049497537314891815,-0.01045452244579792,0.30174997448921204
1686052898224800300,12.84180029296875,-0.048258353024721146,-0.009005898609757423,0.2808234691619873
1686052898244800300,12.86180029296875,-0.05265658348798752,-0.01096066739410162,0.291557252407074
1686052898264800300,12.88180029296875,-0.05101597309112549,-0.011501720175147057,0.3186098635196686
1686052898284800300,12.90180029296875,-0.0126710906624794,-0.004747295752167702,0.36445966362953186
1686052898304800300,12.92180029296875,-0.0012740903766825795,-0.002740166848525405,0.3963642716407776
1686052898324800300,12.94180029296875,-0.001745329238474369,-0.005654866807162762,0.4148298501968384
1686052898344800300,12.96180029296875,-0.002234021434560418,-0.0005585053586401045,0.4346742630004883
1686052898364800300,12.98180029296875,-0.0028797932900488377,-0.005393067374825478,0.450975626707077
1686052898384800300,13.00180029296875,-0.0009075712296180427,-0.0027576202992349863,0.4600338935852051
1686052898404800300,13.02180029296875,0.0017104226863011718,-0.00024434609804302454,0.47258278727531433
1686052898424800300,13.04180029296875,-0.0026179938577115536,-0.0020769417751580477,0.48523643612861633
1686052898444800300,13.06180029296875,-0.00020943951676599681,-0.0006108652451075613,0.5006477236747742
1686052898464800300,13.08180029296875,-0.003228859044611454,-0.0019373154500499368,0.48509681224823
1686052898484800300,13.10180029296875,-0.0052534411661326885,-0.002321287989616394,0.45844563841819763
1686052898504800300,13.12180029296875,-0.0019024088978767395,-0.0032463124953210354,0.4207290709018707
1686052898524800300,13.14180029296875,-0.0018675023457035422,-0.0021118484437465668,0.3954567015171051
1686052898544800300,13.16180029296875,-0.007208209950476885,-0.0025830871891230345,0.40278708934783936
1686052898564800300,13.18180029296875,-0.02471386268734932,-0.007731808349490166,0.4223173260688782
1686052898584800300,13.20180029296875,-0.020559977740049362,-0.007923794910311699,0.4348662495613098
1686052898604800300,13.22180029296875,-0.013753194361925125,-0.006806783843785524,0.44799110293388367
1686052898624800300,13.24180029296875,-0.0293738916516304,-0.01160643994808197,0.47425830364227295
1686052898644800300,13.26180029296875,-0.032794736325740814,-0.012636183761060238,0.4369257092475891
1686052898664800300,13.28180029296875,-0.019425515085458755,-0.013404129073023796,0.3744603991508484
1686052898684800300,13.30180029296875,-0.016528267413377762,-0.007278022821992636,0.3268652558326721
1686052898704800300,13.32180029296875,-0.012845623306930065,-0.004956734832376242,0.3023608326911926
1686052898724800300,13.34180029296875,-0.007033676840364933,-0.006021386012434959,0.27782151103019714
1686052898744800300,13.36180029296875,0.0023387412074953318,-0.0010122909443452954,0.26017624139785767
1686052898764800300,13.38180029296875,0.0005759586347267032,-0.0019373154500499368,0.24111723899841309
1686052898784800300,13.40180029296875,0.00029670598451048136,-0.0009773843921720982,0.20376719534397125
1686052898804800300,13.42180029296875,0.0025656339712440968,0.00027925267932005227,0.1307600736618042
1686052898824800300,13.44180029296875,0.0011519172694534063,0.0006108652451075613,0.0481012724339962
1686052898844800300,13.46180029296875,0.0017278759041801095,0.002024581888690591,-0.013840461149811745
1686052898864800300,13.48180029296875,0.003490658476948738,0.002373647876083851,-0.06784094870090485
1686052898884800300,13.50180029296875,0.007819075137376785,0.004380776546895504,-0.13617058098316193
1686052898904800300,13.52180029296875,0.0057246801443398,0.0011693706037476659,-0.21635101735591888
1686052898924800300,13.54180029296875,0.006841690745204687,0.003508111694827676,-0.30721285939216614
1686052898944800300,13.56180029296875,0.006265731994062662,0.0023038345389068127,-0.3909013867378235
1686052898964800300,13.58180029296875,0.006719517521560192,0.00205948855727911,-0.4614475965499878
1686052898984800300,13.60180029296875,0.005201081279665232,0.0011344640515744686,-0.4993910491466522
1686052899004800300,13.62180029296875,-0.0006457717972807586,-0.000052359879191499203,-0.5056917071342468
1686052899024800300,13.64180029296875,0.00027925267932005227,0.00125663704238832,-0.47392669320106506
1686052899044800300,13.66180029296875,0.001029744278639555,0.0016755161341279745,-0.43221333622932434
1686052899064800300,13.68180029296875,0.0005235987482592463,0.002146754879504442,-0.42268383502960205
1686052899084800300,13.70180029296875,0.0008726646192371845,0.002321287989616394,-0.45001569390296936
1686052899104800300,13.72180029296875,0.004136430099606514,0.0034382985904812813,-0.4743979275226593
1686052899124800300,13.74180029296875,0.006126105785369873,0.003036872949451208,-0.48717376589775085
1686052899144800300,13.76180029296875,0.00905825849622488,0.005078908056020737,-0.5008571147918701
1686052899164800300,13.78180029296875,0.01958259381353855,0.006946410518139601,-0.5037194490432739
1686052899184800300,13.80180029296875,0.003525565145537257,0.0020420351065695286,-0.5042605400085449
1686052899204800300,13.82180029296875,0.004206243436783552,0.0023561944253742695,-0.5215567350387573
1686052899224800300,13.84180029296875,0.004014257341623306,-0.00006981316983001307,-0.5277701020240784
1686052899244800300,13.86180029296875,0.03056071512401104,0.008936085738241673,-0.4957607686519623
1686052899264800300,13.88180029296875,0.02157226949930191,0.006684611085802317,-0.44373250007629395
1686052899284800300,13.90180029296875,0.0024958208668977022,0.0026703537441790104,-0.4178667366504669
1686052899304800300,13.92180029296875,0.0018151424592360854,0.002949606394395232,-0.4026125371456146
1686052899324802000,13.941802001953125,0.0008377580670639873,0.0013962633674964309,-0.38817867636680603
1686052899344800300,13.96180029296875,0.00015707963029854,0.0007330382941290736,-0.3632728159427643
1686052899364800300,13.98180029296875,0.0011519172694534063,0.0011868239380419254,-0.33833208680152893
1686052899384800300,14.00180029296875,0.002949606394395232,0.0012915435945615172,-0.3410896956920624
1686052899404802000,14.021802001953125,0.0016929693520069122,0.002199114765971899,-0.3545287251472473
1686052899424802000,14.041802001953124,0.003089232835918665,0.0014660765882581472,-0.3643374741077423
1686052899444800300,14.06180029296875,0.00094247778179124,-0.00015707963029854,-0.36105626821517944
1686052899464800300,14.08180029296875,0.002286381321027875,-0.00041887903353199363,-0.342835009098053
1686052899484800300,14.10180029296875,0.006894050631672144,-0.0007504915702156723,-0.31784191727638245
1686052899504800300,14.12180029296875,0.002600540639832616,-0.0031066860537976027,-0.29735174775123596
1686052899524800300,14.14180029296875,0.00006981316983001307,-0.002600540639832616,-0.29358184337615967
1686052899544800300,14.16180029296875,0.0027576202992349863,-0.004607669077813625,-0.28473302721977234
1686052899564800300,14.18180029296875,0.002600540639832616,-0.0016406094655394554,-0.26483625173568726
1686052899584800300,14.20180029296875,0.003281218931078911,-0.003857177682220936,-0.2561096251010895
1686052899604800300,14.22180029296875,0.0020420351065695286,-0.0035604715812951326,-0.2512226998806
1686052899624800300,14.24180029296875,0.0005934119690209627,-0.0005410520825535059,-0.2491282969713211
1686052899644800300,14.26180029296875,-0.00010471975838299841,-0.00020943951676599681,-0.24834290146827698
1686052899664800300,14.28180029296875,0.00062831852119416,-0.00013962633966002613,-0.23294909298419952
1686052899684800300,14.30180029296875,0.004206243436783552,-0.002740166848525405,-0.2097013145685196
1686052899704800300,14.32180029296875,0.0018675023457035422,-0.000052359879191499203,-0.19420278072357178
1686052899724800300,14.34180029296875,0.0011519172694534063,0.0015358896926045418,-0.20052087306976318
1686052899744800300,14.36180029296875,0.0004886921960860491,0.0018325956771150231,-0.22245965898036957
1686052899764800300,14.38180029296875,0.0005061454721726477,0.0006457717972807586,-0.2379407286643982
1686052899784800300,14.40180029296875,0.004014257341623306,-0.00010471975838299841,-0.2362128645181656
1686052899804800300,14.42180029296875,0.0022165682166814804,0.0029845130629837513,-0.22362904250621796
1686052899824800300,14.44180029296875,0.002722713630646467,0.00040142572834156454,-0.21621139347553253
1686052899844800300,14.46180029296875,0.0008901178953237832,0.001029744278639555,-0.20657716691493988
1686052899864800300,14.48180029296875,0.0016929693520069122,-0.0002617993741296232,-0.19593065977096558
1686052899884800300,14.50180029296875,0.0013613568153232336,0.002251474652439356,-0.1843242198228836
1686052899904802000,14.521802001953125,0.003996803890913725,-0.0007330382941290736,-0.17631316184997559
1686052899924800300,14.54180029296875,0.0006806784076616168,-0.002286381321027875,-0.1696460098028183
1686052899944800300,14.56180029296875,-0.0004886921960860491,-0.001483529806137085,-0.13901548087596893
1686052899964800300,14.58180029296875,-0.00013962633966002613,-0.0007679448463022709,-0.11304497718811035
1686052899984800300,14.60180029296875,-0.001343903481028974,-0.00010471975838299841,-0.12405800074338913
1686052900004800300,14.62180029296875,-0.00472984230145812,0.0009948377264663577,-0.1592961996793747
1686052900024800300,14.64180029296875,-0.0437903106212616,0.0013613568153232336,-0.20099212229251862
1686052900044800300,14.66180029296875,-0.05106833204627037,0.001117010717280209,-0.2471037209033966
1686052900064800300,14.68180029296875,-0.022654373198747635,0.005672320257872343,-0.2482556253671646
1686052900084800300,14.70180029296875,0.0017627825727686286,0.0011344640515744686,-0.12714724242687225
1686052900104800300,14.72180029296875,0.000017453292457503267,0.0009599310578778386,-0.002373647876083851
1686052900124800300,14.74180029296875,-0.00012217304902151227,0.0005585053586401045,-0.020315632224082947
1686052900144800300,14.76180029296875,0.00024434609804302454,0.00015707963029854,-0.01984439417719841
1686052900164800300,14.78180029296875,0.0014486232539638877,0.0010995573829859495,-0.024870941415429115
1686052900184800300,14.80180029296875,0.0025656339712440968,-0.001117010717280209,-0.04358087107539177
1686052900204800300,14.82180029296875,0.003490658476948738,0.0016057029133662581,-0.045151665806770325
1686052900224800300,14.84180029296875,0.0013788101496174932,0.0037000980228185654,-0.027872908860445023
1686052900244800300,14.86180029296875,0.00043633230961859226,0.0031415927223861217,-0.02701769582927227
1686052900264800300,14.88180029296875,-0.0005585053586401045,0.00020943951676599681,-0.01061160210520029
1686052900284800300,14.90180029296875,-0.00041887903353199363,-0.00008726646046852693,-0.006300638429820538
1686052900304802000,14.921802001953125,-0.0003490658418741077,0.0012740903766825795,-0.004485496319830418
1686052900324802000,14.941802001953125,0,-0.0010471974965184927,-0.004380776546895504
1686052900344800300,14.96180029296875,0.00015707963029854,0.0003665191470645368,-0.0024260077625513077
1686052900364800300,14.98180029296875,0.0003316125657875091,-0.00010471975838299841,-0.0012391837080940604
1686052900384800300,15.00180029296875,0.0005585053586401045,-0.0005934119690209627,-0.002146754879504442
1686052900404800300,15.02180029296875,-0.0005410520825535059,0.00062831852119416,-0.0008726646192371845
1686052900424800300,15.04180029296875,0.0003316125657875091,-0.0003665191470645368,-0.0016057029133662581
1686052900444800300,15.06180029296875,0.00022689280740451068,0,-0.0025307273026555777
1686052900464800300,15.08180029296875,-0.0005759586347267032,0.00027925267932005227,-0.002548180753365159
1686052900484800300,15.10180029296875,0.00029670598451048136,0.0016755161341279745,-0.002199114765971899
1686052900504802000,15.121802001953125,-0.00029670598451048136,0.002007128670811653,-0.0027925267349928617
1686052900524802000,15.141802001953126,-0.00008726646046852693,-0.0003490658418741077,-0.0013962633674964309
1686052900544802000,15.161802001953125,0.0005061454721726477,-0.0023387412074953318,0
1686052900564802000,15.181802001953125,-0.00010471975838299841,-0.0008028514566831291,-0.0006981316837482154
1686052900584802000,15.201802001953125,-0.00010471975838299841,-0.001972222002223134,-0.0024085543118417263
1686052900604802000,15.221802001953124,0.0005759586347267032,-0.00010471975838299841,-0.000052359879191499203
1686052900624802000,15.241802001953126,0.00040142572834156454,-0.0007679448463022709,-0.0020769417751580477
1686052900644802000,15.261802001953125,0.0005235987482592463,-0.00047123889089562,-0.0020420351065695286
1686052900664802000,15.281802001953125,0.00031415926059708,0.0007330382941290736,-0.0005585053586401045
1686052900684800300,15.30180029296875,0.0004886921960860491,0.0005410520825535059,-0.0018675023457035422
1686052900704802000,15.321802001953126,0.12447687983512878,-0.0012217304902151227,-0.002024581888690591
1686052900724802000,15.341802001953125,0.39357173442840576,0.0006108652451075613,-0.0036651913542300463
1686052900744859600,15.361859619140626,0.3257482647895813,0.002234021434560418,-0.002146754879504442
1686052900764802000,15.381802001953124,0.35383060574531555,0.0021293016616255045,-0.0027925267349928617
1686052900784802000,15.401802001953126,0.3746698200702667,0.0024085543118417263,-0.003403391921892762
1686052900804802000,15.421802001953125,0.3873932659626007,0.0023911010939627886,-0.002007128670811653
1686052900824802000,15.441802001953125,0.43455207347869873,0.004171337001025677,-0.003001966280862689
1686052900844802000,15.461802001953124,0.45439645648002625,0.0026703537441790104,-0.0055850534699857235
1686052900864802000,15.481802001953126,0.5290092825889587,0.0061610122211277485,-0.004834562074393034
1686052900884802000,15.501802001953125,0.5761855244636536,0.002809980185702443,-0.0030194194987416267
1686052900904802000,15.521802001953125,0.6190682649612427,0.0026703537441790104,-0.00518362782895565
1686052900924802000,15.541802001953124,0.591526985168457,0.006457718089222908,-0.0033335788175463676
1686052900944800300,15.56180029296875,0.605000913143158,0.0036128314677625895,-0.003001966280862689
1686052900964800300,15.58180029296875,0.6402565836906433,0.003036872949451208,-0.004852015525102615
1686052900984802000,15.601802001953125,0.7180458903312683,0.003909537568688393,-0.00472984230145812
1686052901004802000,15.621802001953125,0.7877543568611145,0.006021386012434959,-0.005445427261292934
1686052901024802000,15.641802001953126,0.8204792737960815,0.0050090947188436985,-0.004921828396618366
1686052901044802000,15.661802001953125,0.8000414967536926,0.0062831854447722435,-0.0028972465079277754
1686052901064802000,15.681802001953125,0.7796385884284973,0.005986479111015797,-0.005393067374825478
1686052901084802000,15.701802001953125,0.7756941318511963,0.007435102481395006,-0.003036872949451208
1686052901104802000,15.721802001953124,0.7605621218681335,0.004921828396618366,-0.003909537568688393
1686052901124802000,15.741802001953126,0.83287113904953,0.005864306353032589,-0.005218534264713526
1686052901144802000,15.761802001953125,0.9040107131004333,0.006719517521560192,-0.0062831854447722435
1686052901164802000,15.781802001953125,0.9107477068901062,0.00678933085873723,-0.006998770404607058
1686052901184802000,15.801802001953124,0.875125527381897,0.005078908056020737,-0.0067544239573180676
1686052901204802000,15.821802001953126,0.8470606207847595,0.008220500312745571,-0.0038397242315113544
1686052901224802000,15.841802001953125,0.857637345790863,0.006300638429820538,-0.0047996556386351585
1686052901244800300,15.86180029296875,0.8874824643135071,0.008045967668294907,-0.005323254037648439
1686052901264802000,15.881802001953124,0.9427396059036255,0.007120943162590265,-0.004345869645476341
1686052901284802000,15.901802001953126,0.962618887424469,0.0073303827084600925,-0.005567600484937429
1686052901304802000,15.921802001953125,0.9091943502426147,0.006963863503187895,-0.006073745898902416
1686052901324800300,15.94180029296875,0.881949782371521,0.005096361506730318,-0.0066147977486252785
1686052901344802000,15.961802001953124,0.8894197940826416,0.005497787147760391,-0.004817108623683453
1686052901364800300,15.98180029296875,0.9011135101318359,0.00708603672683239,-0.0034208453726023436
1686052901384800300,16.00180029296875,0.8488757610321045,0.007400196045637131,-0.005550147034227848
1686052901404800300,16.02180029296875,0.8315446376800537,0.005166174378246069,-0.006230825558304787
1686052901424800300,16.04180029296875,0.8703258633613586,0.006230825558304787,-0.0037873645778745413
1686052901444800300,16.06180029296875,0.8610232472419739,0.006841690745204687,-0.005358160939067602
1686052901464802000,16.081802001953125,0.8956854939460754,0.007627088576555252,-0.0062831854447722435
1686052901484800300,16.10180029296875,0.8778831362724304,0.006894050631672144,-0.005986479111015797
1686052901504802000,16.121802001953125,0.8807629346847534,0.007382742594927549,-0.004886921960860491
1686052901524800300,16.14180029296875,0.904900848865509,0.006003932561725378,-0.005201081279665232
1686052901544800300,16.16180029296875,0.9477312564849854,0.009128072299063206,-0.00783652812242508
1686052901564800300,16.18180029296875,1.036184549331665,0.008569566532969475,-0.006492624990642071
1686052901584800300,16.20180029296875,1.1183022260665894,0.009128072299063206,-0.006928957067430019
1686052901604800300,16.22180029296875,1.1588985919952393,0.008691739290952682,-0.007365289609879255
1686052901624800300,16.24180029296875,1.1014598608016968,0.006963863503187895,-0.004398229531943798
1686052901644800300,16.26180029296875,1.0442304611206055,0.008883725851774216,-0.009337511844933033
1686052901664800300,16.28180029296875,1.0414379835128784,0.00830776710063219,-0.005113814491778612
1686052901684800300,16.30180029296875,1.0792417526245117,0.006265731994062662,-0.0055850534699857235
1686052901704800300,16.32180029296875,1.0845301151275635,0.007051130291074514,-0.005916666239500046
1686052901724802000,16.341802001953123,1.0300933122634888,0.008168140426278114,-0.007138396613299847
1686052901744802000,16.361802001953127,0.9219177961349487,0.008656833320856094,-0.005340707488358021
1686052901764800300,16.38180029296875,0.8949001431465149,0.004188789986073971,-0.00753982225432992
1686052901784800300,16.40180029296875,0.9452179670333862,0.00502654816955328,-0.003996803890913725
1686052901804802000,16.421802001953125,0.9957801699638367,0.008377579972147942,-0.006352998316287994
1686052901824800300,16.44180029296875,1.0284701585769653,0.008674286305904388,-0.004625122528523207
1686052901844800300,16.46180029296875,0.9887115359306335,0.006195918656885624,-0.005672320257872343
1686052901864800300,16.48180029296875,0.9167690873146057,0.01129228062927723,-0.004206243436783552
1686052901884800300,16.50180029296875,0.876801073551178,0.007853982038795948,-0.005166174378246069
1686052901904800300,16.52180029296875,0.8694008588790894,0.00830776710063219,-0.005672320257872343
1686052901924800300,16.54180029296875,0.8216137290000916,0.00472984230145812,-0.008761553093791008
1686052901944800300,16.56180029296875,0.7901454567909241,0.008203047327697277,-0.0051312679424881935
1686052901964800300,16.58180029296875,0.7923794984817505,0.006510077975690365,-0.004049163777381182
1686052901984800300,16.60180029296875,0.7826929092407227,0.0076445420272648335,-0.004974188283085823
1686052902004800300,16.62180029296875,0.7700043320655823,0.006248278543353081,-0.003298672381788492
1686052902024800300,16.64180029296875,0.7810697555541992,0.005550147034227848,-0.004590216092765331
1686052902044800300,16.66180029296875,0.7543662190437317,0.007382742594927549,-0.00296705961227417
1686052902064800300,16.68180029296875,0.7083244323730469,0.006841690745204687,-0.004886921960860491
1686052902084800300,16.70180029296875,0.6098529696464539,0.003281218931078911,-0.005305801052600145
1686052902104800300,16.72180029296875,0.4824788272380829,0.0020769417751580477,-0.0022165682166814804
1686052902124800300,16.74180029296875,0.45376816391944885,0.0033335788175463676,-0.002251474652439356
1686052902144800300,16.76180029296875,0.4439244866371155,0.003752457909286022,-0.001029744278639555
1686052902164800300,16.78180029296875,0.33449235558509827,0.001972222002223134,-0.0034382985904812813
1686052902184800300,16.80180029296875,0.3044203221797943,0.003525565145537257,-0.0026179938577115536
1686052902204800300,16.82180029296875,0.274819552898407,0.000715585018042475,-0.0026703537441790104
1686052902224800300,16.84180029296875,0.24010494351387024,0.0007330382941290736,-0.002949606394395232
1686052902244800300,16.86180029296875,0.2275385707616806,0.00010471975838299841,-0.002373647876083851
1686052902264800300,16.88180029296875,0.18025760352611542,0.002809980185702443,-0.00013962633966002613
1686052902284800300,16.90180029296875,0.05195845291018486,-0.0005235987482592463,-0.0010122909443452954
1686052902304802000,16.921802001953125,0.0002617993741296232,-0.00031415926059708,-0.00031415926059708
1686052902324800300,16.94180029296875,0.000052359879191499203,0.00012217304902151227,0.00038397242315113544
1686052902344800300,16.96180029296875,-0.0005410520825535059,-0.0006632251315750182,-0.0009773843921720982
1686052902364800300,16.98180029296875,-0.00012217304902151227,-0.0008901178953237832,-0.0013788101496174932
1686052902384800300,17.00180029296875,0.0007679448463022709,-0.001029744278639555,-0.0016755161341279745
1686052902404800300,17.02180029296875,0.00045378561480902135,-0.00017453292093705386,-0.0005061454721726477
1686052902424800300,17.04180029296875,0.00012217304902151227,0.0008552113431505859,0.00043633230961859226
1686052902444800300,17.06180029296875,0.00038397242315113544,0.000017453292457503267,-0.000715585018042475
1686052902464800300,17.08180029296875,-0.0007330382941290736,-0.0005934119690209627,-0.0012217304902151227
1686052902484800300,17.10180029296875,-0.000017453292457503267,0.00008726646046852693,-0.0008726646192371845
1686052902504800300,17.12180029296875,0.0008203047327697277,-0.00013962633966002613,0.0003665191470645368
1686052902524800300,17.14180029296875,0.000017453292457503267,-0.00022689280740451068,-0.000017453292457503267
1686052902544800300,17.16180029296875,0,0.000017453292457503267,-0.00003490658491500653
1686052902564800300,17.18180029296875,0.0002617993741296232,-0.00019198621157556772,-0.0014660765882581472
1686052902584800300,17.20180029296875,0.00010471975838299841,0.00029670598451048136,-0.000052359879191499203
1686052902604800300,17.22180029296875,0.0013264502631500363,-0.0005585053586401045,-0.00047123889089562
1686052902624800300,17.24180029296875,-0.00006981316983001307,-0.0016231562476605177,-0.0016231562476605177
1686052902644800300,17.26180029296875,-0.00013962633966002613,-0.0009250245057046413,-0.0020420351065695286
1686052902664800300,17.28180029296875,-0.00008726646046852693,0.00003490658491500653,0.000052359879191499203
1686052902684800300,17.30180029296875,0.00045378561480902135,-0.0004886921960860491,-0.0015707963611930609
1686052902704800300,17.32180029296875,0.0007853981805965304,-0.00047123889089562,-0.0006108652451075613
1686052902724800300,17.34180029296875,0.0008901178953237832,0,-0.0011868239380419254
1686052902744800300,17.36180029296875,0.0006108652451075613,-0.00027925267932005227,-0.0013264502631500363
1686052902764800300,17.38180029296875,0.00019198621157556772,-0.00038397242315113544,-0.0013089969288557768
1686052902784800300,17.40180029296875,0.0003316125657875091,0.0003490658418741077,-0.00031415926059708
1686052902804800300,17.42180029296875,-0.000052359879191499203,0.00012217304902151227,-0.00062831852119416
1686052902824800300,17.44180029296875,-0.00029670598451048136,-0.0005585053586401045,-0.001658062799833715
1686052902844800300,17.46180029296875,-0.00010471975838299841,-0.00029670598451048136,-0.0008028514566831291
1686052902864800300,17.48180029296875,0.00027925267932005227,-0.0011868239380419254,-0.0010646508308127522
1686052902884800300,17.50180029296875,0.00015707963029854,-0.0008028514566831291,-0.0010122909443452954
1686052902904800300,17.52180029296875,0.00003490658491500653,-0.0003665191470645368,-0.0013788101496174932
1686052902924800300,17.54180029296875,0.0008901178953237832,-0.0007504915702156723,-0.001518436474725604
1686052902944800300,17.56180029296875,0.0003490658418741077,-0.0010471974965184927,0.00024434609804302454
1686052902964800300,17.58180029296875,0.0007330382941290736,-0.00047123889089562,-0.00043633230961859226
1686052902984800300,17.60180029296875,0.0007679448463022709,-0.0006632251315750182,-0.0008377580670639873
1686052903004800300,17.62180029296875,0.00012217304902151227,0.00008726646046852693,-0.002024581888690591
1686052903024800300,17.64180029296875,0.0008377580670639873,0.00029670598451048136,-0.0017802357906475663
1686052903044800300,17.66180029296875,0.00031415926059708,-0.0006806784076616168,-0.000052359879191499203
1686052903064800300,17.68180029296875,-0.00012217304902151227,0.0008028514566831291,-0.0015533430268988013
1686052903084802000,17.701802001953126,0.0006108652451075613,-0.00040142572834156454,0.00022689280740451068
1686052903104800300,17.72180029296875,0.0007853981805965304,-0.0005061454721726477,0.0004886921960860491
1686052903124800300,17.74180029296875,0,-0.0005061454721726477,-0.0020943949930369854
1686052903144800300,17.76180029296875,0.00013962633966002613,0.000017453292457503267,-0.00040142572834156454
1686052903164800300,17.78180029296875,0.00013962633966002613,0.000052359879191499203,0.000017453292457503267
1686052903184800300,17.80180029296875,-0.0002617993741296232,0.00012217304902151227,-0.0013962633674964309
1686052903204800300,17.82180029296875,0.0005235987482592463,0.0007330382941290736,-0.0006457717972807586
1686052903224800300,17.84180029296875,0.00031415926059708,-0.0002617993741296232,-0.0010821041651070118
1686052903244800300,17.86180029296875,0.0005061454721726477,-0.0012740903766825795,-0.00040142572834156454
1686052903264800300,17.88180029296875,0.00031415926059708,-0.00010471975838299841,-0.001518436474725604
1686052903284800300,17.90180029296875,0.00010471975838299841,-0.0009948377264663577,-0.002199114765971899
1686052903304800300,17.92180029296875,0.00040142572834156454,-0.00045378561480902135,-0.00040142572834156454
1686052903324800300,17.94180029296875,0.0010122909443452954,-0.0002617993741296232,-0.001518436474725604
1686052903344800300,17.96180029296875,0.00017453292093705386,0,-0.00041887903353199363
1686052903364800300,17.98180029296875,0.00029670598451048136,-0.00029670598451048136,-0.001518436474725604
1686052903384800300,18.00180029296875,0.00006981316983001307,0.0011519172694534063,-0.0005759586347267032
1686052903404800300,18.02180029296875,-0.00012217304902151227,-0.0006806784076616168,-0.0006632251315750182
1686052903424800300,18.04180029296875,0.00019198621157556772,-0.00022689280740451068,-0.0017278759041801095
1686052903444800300,18.06180029296875,-0.00012217304902151227,-0.0010471974965184927,-0.0013962633674964309
1686052903464800300,18.08180029296875,0.0003490658418741077,-0.0007853981805965304,-0.0010122909443452954
1686052903484800300,18.10180029296875,0.0003490658418741077,-0.00022689280740451068,-0.0005235987482592463
1686052903504800300,18.12180029296875,-0.0003665191470645368,-0.00029670598451048136,-0.0007330382941290736
1686052903524800300,18.14180029296875,0,-0.0010995573829859495,-0.0016755161341279745
1686052903544800300,18.16180029296875,0.00013962633966002613,0.00031415926059708,-0.001029744278639555
1686052903564800300,18.18180029296875,0.0007679448463022709,-0.0006806784076616168,-0.0017278759041801095
1686052903584800300,18.20180029296875,0.00020943951676599681,-0.00031415926059708,-0.00013962633966002613
1686052903604800300,18.22180029296875,0.00010471975838299841,0.00012217304902151227,-0.0009250245057046413
1686052903624802000,18.241802001953126,-0.00006981316983001307,-0.0011868239380419254,-0.0013264502631500363
1686052903644800300,18.26180029296875,0.00017453292093705386,-0.00024434609804302454,-0.0018151424592360854
1686052903664800300,18.28180029296875,-0.00012217304902151227,-0.002007128670811653,-0.002548180753365159
1686052903684800300,18.30180029296875,0.00012217304902151227,-0.0008901178953237832,-0.0008028514566831291
1686052903704800300,18.32180029296875,0.0003316125657875091,0.00012217304902151227,-0.00015707963029854
1686052903724800300,18.34180029296875,0.00040142572834156454,0.000715585018042475,-0.0012217304902151227
1686052903744802000,18.361802001953127,0.00031415926059708,-0.0009250245057046413,-0.0008901178953237832
1686052903764800300,18.38180029296875,-0.0002617993741296232,0.0005934119690209627,-0.00019198621157556772
1686052903784800300,18.40180029296875,-0.00012217304902151227,0.0005759586347267032,-0.002251474652439356
1686052903804800300,18.42180029296875,-0.0005061454721726477,-0.0009075712296180427,-0.0012042771559208632
1686052903824800300,18.44180029296875,0.00012217304902151227,-0.0011868239380419254,0.0002617993741296232
1686052903844800300,18.46180029296875,-0.00027925267932005227,0.00020943951676599681,-0.00031415926059708
1686052903864800300,18.48180029296875,0.0011519172694534063,-0.0005934119690209627,-0.0008726646192371845
1686052903884800300,18.50180029296875,-0.000052359879191499203,-0.0006108652451075613,-0.0005934119690209627
1686052903904800300,18.52180029296875,-0.000052359879191499203,-0.0006632251315750182,-0.0011519172694534063
