time,seconds_elapsed,z,y,x
1686052885483950800,0.100950927734375,9.857138633728027,-0.039705440402030945,0.009356540627777576
1686052885503950800,0.120950927734375,9.865049362182617,-0.03935110196471214,-0.006560112349689007
1686052885523950800,0.140950927734375,9.830055236816406,-0.02533065341413021,-0.01677856594324112
1686052885543950800,0.160950927734375,9.830658912658691,-0.026786329224705696,-0.021337125450372696
1686052885563950800,0.180950927734375,9.835466384887695,-0.043469127267599106,-0.0063685765489935875
1686052885583950800,0.200950927734375,9.830984115600586,-0.03976290300488472,-0.00017238251166418195
1686052885603950800,0.220950927734375,9.829442977905273,-0.025483882054686546,0.009768342599272728
1686052885623950800,0.240950927734375,9.822796821594238,-0.030233977362513542,-0.005248090252280235
1686052885643950800,0.260950927734375,9.832191467285156,-0.03728250786662102,0.0026048915460705757
1686052885663950800,0.280950927734375,9.835265159606934,-0.023693019524216652,-0.008312667720019817
1686052885683950800,0.300950927734375,9.82490348815918,-0.03653552010655403,-0.019565416499972343
1686052885703950800,0.320950927734375,9.819875717163086,-0.03326982632279396,-0.009414001367986202
1686052885723950800,0.340950927734375,9.828829765319824,-0.024899698793888092,-0.007584830746054649
1686052885743950800,0.360950927734375,9.831655502319336,-0.029774291440844536,-0.006454767659306526
1686052885763950800,0.380950927734375,9.822202682495117,-0.03322194144129753,-0.008820239454507828
1686052885783950800,0.400950927734375,9.817317962646484,-0.0354246087372303,-0.0030071171931922436
1686052885803950800,0.420950927734375,9.829318046569824,-0.02462197095155716,-0.011664550751447678
1686052885823949300,0.44094921875,9.819195747375488,-0.03371993452310562,-0.01308191753923893
1686052885843950800,0.460950927734375,9.816591262817383,-0.02661394700407982,-0.021011514589190483
1686052885863949300,0.48094921875,9.820239067077637,-0.019613299518823624,-0.001637633889913559
1686052885883949300,0.50094921875,9.812655448913574,-0.029984980821609497,-0.011348516680300236
1686052885903949300,0.52094921875,9.831262588500977,-0.03239833936095238,-0.0054683564230799675
1686052885923950800,0.540950927734375,9.819904327392578,-0.02682463638484478,-0.012018891982734203
1686052885943949300,0.56094921875,9.8200101852417,-0.038355108350515366,-0.018109740689396858
1686052885963949300,0.58094921875,9.812300682067871,-0.036056678742170334,-0.015045163221657276
1686052885983949300,0.60094921875,9.818946838378906,-0.03360501304268837,-0.008619125932455063
1686052886003949300,0.62094921875,9.815250396728516,-0.03268564119935036,0.005046977195888758
1686052886023949300,0.64094921875,9.827239990234375,-0.0389871783554554,0.0017238252330571413
1686052886043949300,0.66094921875,9.80789566040039,-0.03589387238025665,0.0029975404031574726
1686052886063949300,0.68094921875,9.809810638427734,-0.048142608255147934,-0.01621353253722191
1686052886083949300,0.70094921875,9.815423011779785,-0.028902802616357803,-0.01874181255698204
1686052886103949300,0.72094921875,9.81251049041748,-0.026077644899487495,-0.012315774336457253
1686052886123949300,0.74094921875,9.81027889251709,-0.038144420832395554,-0.017975665628910065
1686052886143950800,0.760950927734375,9.821351051330566,-0.03723462298512459,-0.00442448491230607
1686052886163949300,0.78094921875,9.804169654846191,-0.04617936164140701,-0.0027389666065573692
1686052886183950800,0.800950927734375,9.822527885437012,-0.034677617251873016,-0.009911995381116867
1686052886203950800,0.820950927734375,9.813584327697754,-0.03182372823357582,-0.009011775255203247
1686052886223949300,0.84094921875,9.812108993530273,-0.03468719497323036,-0.0012928689830005169
1686052886243949300,0.86094921875,9.821340560913086,-0.04061523824930191,0.0016759412828832865
1686052886263949300,0.88094921875,9.8274507522583,-0.03487873077392578,-0.00164721067994833
1686052886283949300,0.90094921875,9.815231323242188,-0.019258959218859673,-0.010409989394247532
1686052886303950800,0.920950927734375,9.82663631439209,-0.034964919090270996,-0.01926853507757187
1686052886323950800,0.940950927734375,9.814244270324707,-0.04320097714662552,-0.018942924216389656
1686052886343950800,0.960950927734375,9.807588577270508,-0.0331740565598011,0.002470816019922495
1686052886363949300,0.98094921875,9.80402660369873,-0.029697677120566368,-0.00949061568826437
1686052886383949300,1.00094921875,9.819818496704102,-0.03643975034356117,-0.02229480631649494
1686052886403949300,1.02094921875,9.814550399780273,-0.033260248601436615,0.0019823990296572447
1686052886423950800,1.040950927734375,9.81699275970459,-0.02518700249493122,0.00397437484934926
1686052886443949300,1.06094921875,9.806371688842773,-0.03433285281062126,-0.006703765131533146
1686052886463949300,1.08094921875,9.819723129272461,-0.0355491079390049,-0.0011779472697526217
1686052886483949300,1.10094921875,9.814638137817383,-0.03458184748888016,-0.010065224021673203
1686052886503949300,1.12094921875,9.809350967407227,-0.02883576601743698,-0.00397437484934926
1686052886523949300,1.14094921875,9.811266899108887,-0.024258051067590714,-0.01621353253722191
1686052886543949300,1.16094921875,9.804668426513672,-0.034562695771455765,-0.020772093906998634
1686052886563949300,1.18094921875,9.807262420654297,-0.03818272799253464,-0.01763090118765831
1686052886583950800,1.200950927734375,9.805692672729492,-0.03924575448036194,0.006521805189549923
1686052886603950800,1.220950927734375,9.819655418395996,-0.034352004528045654,-0.0171807911247015
1686052886623950800,1.240950927734375,9.820411682128906,-0.032474953681230545,-0.0047500962391495705
1686052886643950800,1.260950927734375,9.808738708496094,-0.032522834837436676,-0.013311761431396008
1686052886663950800,1.280950927734375,9.802273750305176,-0.03485957533121109,-0.008676586672663689
1686052886683949300,1.30094921875,9.818371772766113,-0.014192827045917511,0.0021930888760834932
1686052886703949300,1.32094921875,9.808585166931152,-0.03095223940908909,-0.00994072575122118
1686052886723950800,1.340950927734375,9.812759399414062,-0.03445735201239586,-0.003351882565766573
1686052886743950800,1.360950927734375,9.80673599243164,-0.03550122305750847,-0.005755661055445671
1686052886763949300,1.38094921875,9.801239013671875,-0.027044903486967087,-0.012526463717222214
1686052886783950800,1.400950927734375,9.800358772277832,-0.02229480631649494,-0.001781286089681089
1686052886803949300,1.42094921875,9.796393394470215,-0.04696466028690338,-0.02585737779736519
1686052886823949300,1.44094921875,9.795158386230469,-0.027360936626791954,-0.011358093470335007
1686052886843949300,1.46094921875,9.800415992736816,-0.04023216664791107,-0.0035338415764272213
1686052886863949300,1.48094921875,9.80215835571289,-0.025110388174653053,0.002288856776431203
1686052886883949300,1.50094921875,9.801200866699219,-0.036056678742170334,-0.019325995817780495
1686052886903949300,1.52094921875,9.81274127960205,-0.03328897804021835,0.006856993772089481
1686052886923949300,1.54094921875,9.809398651123047,-0.04186980053782463,-0.018636466935276985
1686052886943949300,1.56094921875,9.80708122253418,-0.03912125527858734,-0.00658884271979332
1686052886963949300,1.58094921875,9.800617218017578,-0.03301125392317772,-0.01518881507217884
1686052886983949300,1.60094921875,9.797820091247559,-0.03642059862613678,-0.009701305069029331
1686052887003949300,1.62094921875,9.803930282592773,-0.03903506323695183,-0.018100164830684662
1686052887023949300,1.64094921875,9.812597274780273,-0.028701690956950188,-0.013915100134909153
1686052887043949300,1.66094921875,9.807991027832031,-0.02206496149301529,-0.009615113958716393
1686052887063949300,1.68094921875,9.798806190490723,-0.03756023943424225,-0.0037732617929577827
1686052887083949300,1.70094921875,9.8106050491333,-0.019699491560459137,-0.0054587796330451965
1686052887103949300,1.72094921875,9.801095962524414,-0.023855825886130333,0.001446097856387496
1686052887123949300,1.74094921875,9.802656173706055,-0.02687252126634121,-0.01023760624229908
1686052887143950800,1.760950927734375,9.814627647399902,-0.032072726637125015,-0.005573701579123735
1686052887163950800,1.780950927734375,9.790858268737793,-0.02780146896839142,-0.01677856594324112
1686052887183949300,1.80094921875,9.808642387390137,-0.01798524335026741,-0.004769249819219112
1686052887203949300,1.82094921875,9.807147979736328,-0.02698744274675846,-0.009069235995411873
1686052887223950800,1.840950927734375,9.80974292755127,-0.030770281329751015,-0.006320692598819733
1686052887243949300,1.86094921875,9.800712585449219,-0.021452046930789948,-0.0027102362364530563
1686052887263949300,1.88094921875,9.809025764465332,-0.030396783724427223,-0.019843144342303276
1686052887283949300,1.90094921875,9.815126419067383,-0.014508862048387527,-0.0063494229689240456
1686052887303949300,1.92094921875,9.802101135253906,-0.038259342312812805,-0.005334281362593174
1686052887323949300,1.94094921875,9.797513961791992,-0.030597899109125137,-0.00904050562530756
1686052887343949300,1.96094921875,9.800214767456055,-0.019354727119207382,-0.01580173149704933
1686052887363949300,1.98094921875,9.789650917053223,-0.029984980821609497,-0.010007763281464577
1686052887383949300,2.00094921875,9.804293632507324,-0.028299463912844658,0.0042904093861579895
1686052887403949300,2.02094921875,9.809130668640137,-0.040509890764951706,-0.0026431987062096596
1686052887423949300,2.04094921875,9.792093276977539,-0.03575979545712471,-0.0031124623492360115
1686052887443949300,2.06094921875,9.795377731323242,-0.03149811923503876,-0.006215347908437252
1686052887463949300,2.08094921875,9.79753303527832,-0.027188554406166077,-0.00319865345954895
1686052887483949300,2.10094921875,9.813641548156738,-0.03547249361872673,-0.002221819246187806
1686052887503949300,2.12094921875,9.80549144744873,-0.03961925208568573,0.0014939818065613508
1686052887523949300,2.14094921875,9.801966667175293,-0.02616383507847786,-0.0075273700058460236
1686052887543949300,2.16094921875,9.807799339294434,-0.015016432851552963,-0.014604630880057812
1686052887563949300,2.18094921875,9.822749137878418,-0.019086576998233795,-0.011271901428699493
1686052887583949300,2.20094921875,9.81018352508545,-0.021883003413677216,-0.014250288717448711
1686052887603949300,2.22094921875,9.806228637695312,-0.02765781804919243,-0.015907075256109238
1686052887623949300,2.24094921875,9.800885200500488,-0.03407428041100502,-0.006330269388854504
1686052887643949300,2.26094921875,9.801362991333008,-0.03427539020776749,-0.0015897499397397041
1686052887663949300,2.28094921875,9.799208641052246,-0.03715800866484642,-0.009050082415342331
1686052887683949300,2.30094921875,9.800013542175293,-0.03279098495841026,-0.015562310814857483
1686052887703949300,2.32094921875,9.797503471374512,-0.02855803817510605,-0.009902418591082096
1686052887723949300,2.34094921875,9.806371688842773,-0.03348051756620407,-0.013474567793309689
1686052887743949300,2.36094921875,9.798615455627441,-0.030885202810168266,-0.008264783769845963
1686052887763949300,2.38094921875,9.80980110168457,-0.03139277175068855,-0.004874594509601593
1686052887783949300,2.40094921875,9.80162239074707,-0.018760966137051582,-0.008973468095064163
1686052887803949300,2.42094921875,9.80593204498291,-0.0246411245316267,-0.017334019765257835
1686052887823949300,2.44094921875,9.809810638427734,-0.030032865703105927,0.008676586672663689
1686052887843949300,2.46094921875,9.804716110229492,-0.029486987739801407,-0.017650054767727852
1686052887863949300,2.48094921875,9.799620628356934,-0.032216377556324005,0.011271901428699493
1686052887883949300,2.50094921875,9.800108909606934,-0.025062503293156624,-0.00893516093492508
1686052887903949300,2.52094921875,9.803997039794922,-0.03042551688849926,-0.006454767659306526
1686052887923949300,2.54094921875,9.801487922668457,-0.04363192990422249,-0.006263231858611107
1686052887943949300,2.56094921875,9.791863441467285,-0.04043327644467354,-0.0057460842654109
1686052887963949300,2.58094921875,9.783963203430176,-0.030703242868185043,-0.004405331332236528
1686052887983949300,2.60094921875,9.799017906188965,-0.03918829187750816,-0.016721105203032494
1686052888003949300,2.62094921875,9.814215660095215,-0.026738446205854416,-0.011281479150056839
1686052888023949300,2.64094921875,9.806554794311523,-0.03643017262220383,-0.014853627420961857
1686052888043949300,2.66094921875,9.817605972290039,-0.037713468074798584,-0.005228936672210693
1686052888063949300,2.68094921875,9.79918098449707,-0.03000413440167904,-0.0120859295129776
1686052888083949300,2.70094921875,9.802608489990234,-0.027044903486967087,-0.015705963596701622
1686052888103949300,2.72094921875,9.78828239440918,-0.047548845410346985,-0.0020590133499354124
1686052888123949300,2.74094921875,9.798049926757812,-0.0316321924328804,-0.012018891982734203
1686052888143949300,2.76094921875,9.80805778503418,-0.02689167484641075,-0.022783223539590836
1686052888163949300,2.78094921875,9.796134948730469,-0.030291439965367317,-0.015954960137605667
1686052888183949300,2.80094921875,9.791547775268555,-0.03713885322213173,-0.005209783092141151
1686052888203949300,2.82094921875,9.801823616027832,-0.03130657970905304,-0.025416845455765724
1686052888223949300,2.84094921875,9.806008338928223,-0.03251326084136963,-0.009021352045238018
1686052888243949300,2.86094921875,9.789555549621582,-0.02540726773440838,-0.0037828385829925537
1686052888263949300,2.88094921875,9.809149742126465,-0.03303998336195946,-0.01877054199576378
1686052888283949300,2.90094921875,9.796402931213379,-0.029324183240532875,-0.006215347908437252
1686052888303949300,2.92094921875,9.797513961791992,-0.02810792811214924,-0.01424071192741394
1686052888323949300,2.94094921875,9.802934646606445,-0.034802116453647614,0.006119579542428255
1686052888343949300,2.96094921875,9.791997909545898,-0.04201345145702362,0.004912901669740677
1686052888363949300,2.98094921875,9.794391632080078,-0.03137362003326416,-0.016050728037953377
1686052888383949300,3.00094921875,9.796632766723633,-0.044752418994903564,-0.009078812785446644
1686052888403949300,3.02094921875,9.804207801818848,-0.03770388662815094,-0.01594538241624832
1686052888423949300,3.04094921875,9.798232078552246,-0.04578671231865883,-0.006560112349689007
1686052888443949300,3.06094921875,9.804716110229492,-0.03052128478884697,0.0018387469463050365
1686052888463949300,3.08094921875,9.82032585144043,-0.03179499879479408,0.003275267779827118
1686052888483949300,3.10094921875,9.800769805908203,-0.020302830263972282,-0.010352528654038906
1686052888503949300,3.12094921875,9.814857482910156,-0.02836650051176548,0.001924938173033297
1686052888523949300,3.14094921875,9.798624992370605,-0.03852749243378639,-0.004213795065879822
1686052888543949300,3.16094921875,9.805624961853027,-0.016903065145015717,-0.012430695816874504
1686052888563949300,3.18094921875,9.808115005493164,-0.02602018415927887,-0.0120859295129776
1686052888583949300,3.20094921875,9.80451488494873,-0.0430094376206398,-0.021241357550024986
1686052888603949300,3.22094921875,9.803882598876953,-0.02431551180779934,-0.009662997908890247
1686052888623949300,3.24094921875,9.800836563110352,-0.023309947922825813,-0.009998186491429806
1686052888643949300,3.26094921875,9.80174732208252,-0.024938005954027176,-0.014489708468317986
1686052888663949300,3.28094921875,9.7965087890625,-0.03872860595583916,-0.016203956678509712
1686052888683949300,3.30094921875,9.800233840942383,-0.034917037934064865,-0.009825803339481354
1686052888703949300,3.32094921875,9.802464485168457,-0.026010606437921524,-0.010371682234108448
1686052888723949300,3.34094921875,9.79792594909668,-0.017803283408284187,-0.00968215148895979
1686052888743949300,3.36094921875,9.800281524658203,-0.03270479664206505,-0.00019153613538946956
1686052888763949300,3.38094921875,9.810011863708496,-0.02957317978143692,-0.01079306099563837
1686052888783949300,3.40094921875,9.796067237854004,-0.03855622559785843,-0.014508862048387527
1686052888803949300,3.42094921875,9.806391716003418,-0.02957317978143692,-0.024200590327382088
1686052888823949300,3.44094921875,9.796212196350098,-0.03394020348787308,-0.015887921676039696
1686052888843949300,3.46094921875,9.808537483215332,-0.022495917975902557,-0.011750741861760616
1686052888863949300,3.48094921875,9.795540809631348,-0.03274310380220413,-0.0005841852398589253
1686052888883949300,3.50094921875,9.810079574584961,-0.03143107891082764,-0.013895946554839611
1686052888903949300,3.52094921875,9.796661376953125,-0.02009214088320732,-0.006014234386384487
1686052888923949300,3.54094921875,9.81464672088623,-0.025752034038305283,-0.019325995817780495
1686052888943949300,3.56094921875,9.810633659362793,-0.03224511072039604,0.0007661445415578783
1686052888963949300,3.58094921875,9.809982299804688,-0.028605923056602478,-0.009097966365516186
1686052888983949300,3.60094921875,9.79578971862793,-0.030597899109125137,-0.008829816244542599
1686052889003949300,3.62094921875,9.807856559753418,-0.035041533410549164,-0.0117890490218997
1686052889023949300,3.64094921875,9.811860084533691,-0.03963840380311012,-0.007479486055672169
1686052889043949300,3.66094921875,9.79050350189209,-0.02348233014345169,-0.010285490192472935
1686052889063949300,3.68094921875,9.799525260925293,-0.030454246327280998,-0.0072783734649419785
1686052889083949300,3.70094921875,9.80717658996582,-0.047903187572956085,-0.013675680384039879
1686052889103949300,3.72094921875,9.80058765411377,-0.03624821454286575,0.002461239229887724
1686052889123949300,3.74094921875,9.807531356811523,-0.01943134143948555,-0.017008408904075623
1686052889143949300,3.76094921875,9.81824779510498,-0.0393415205180645,-0.007977480068802834
1686052889163949300,3.78094921875,9.802149772644043,-0.030348900705575943,-0.010563218034803867
1686052889183949300,3.80094921875,9.803201675415039,-0.03346136584877968,0.007757213432341814
1686052889203949300,3.82094921875,9.80766487121582,-0.02670971490442753,-0.011118672788143158
1686052889223949300,3.84094921875,9.799649238586426,-0.03694731742143631,0.00036391866160556674
1686052889243949300,3.86094921875,9.79089641571045,-0.030061595141887665,-0.0016950948629528284
1686052889263949300,3.88094921875,9.809236526489258,-0.02563711255788803,-0.016740258783102036
1686052889283949300,3.90094921875,9.799898147583008,-0.03373908996582031,-0.015150507912039757
1686052889303949300,3.92094921875,9.80058765411377,-0.026623522862792015,-0.0071921818889677525
1686052889323949300,3.94094921875,9.778436660766602,-0.027590779587626457,-0.012823344208300114
1686052889343950800,3.960950927734375,9.787802696228027,-0.03097139298915863,-0.02016875520348549
1686052889363949300,3.98094921875,9.808019638061523,-0.03924575448036194,-0.014662091620266438
1686052889383949300,4.00094921875,9.792657852172852,-0.040059782564640045,-0.022783223539590836
1686052889403949300,4.02094921875,9.792630195617676,-0.048707637935876846,-0.01079306099563837
1686052889423949300,4.04094921875,9.800071716308594,-0.04014597460627556,0.005315127782523632
1686052889443949300,4.06094921875,9.801727294921875,-0.023855825886130333,-0.004711789079010487
1686052889463949300,4.08094921875,9.794267654418945,-0.03395935893058777,-0.01223915908485651
1686052889483949300,4.10094921875,9.794507026672363,-0.03260902687907219,-0.011501745320856571
1686052889503949300,4.12094921875,9.801555633544922,-0.029046455398201942,-0.01004607044160366
1686052889523949300,4.14094921875,9.791624069213867,-0.03349967300891876,-0.0025091234128922224
1686052889543949300,4.16094921875,9.807206153869629,-0.02786850742995739,-0.011827356182038784
1686052889563949300,4.18094921875,9.804083824157715,-0.027571626007556915,0.0019919758196920156
1686052889583949300,4.20094921875,9.784374237060547,-0.03118208236992359,-0.018358737230300903
1686052889603949300,4.22094921875,9.784431457519531,-0.03540545701980591,0.0021643582731485367
1686052889623949300,4.24094921875,9.797916412353516,-0.03185245767235756,-0.005238513462245464
1686052889643949300,4.26094921875,9.790302276611328,-0.020274098962545395,0.00649307481944561
1686052889663949300,4.28094921875,9.802532196044922,-0.0428849421441555,-0.006339846178889275
1686052889683949300,4.30094921875,9.80233097076416,-0.03258029371500015,-0.007920019328594208
1686052889703949300,4.32094921875,9.801785469055176,-0.025349806994199753,-0.007115567568689585
1686052889723949300,4.34094921875,9.790848731994629,-0.03452438861131668,-0.005784391425549984
1686052889743949300,4.36094921875,9.805136680603027,-0.038757335394620895,-0.001934514963068068
1686052889763949300,4.38094921875,9.795339584350586,-0.036008793860673904,-0.03355713188648224
1686052889783949300,4.40094921875,9.798041343688965,-0.04279874637722969,-0.007565677165985107
1686052889803949300,4.42094921875,9.798940658569336,-0.03764642775058746,-0.014757859520614147
1686052889823949300,4.44094921875,9.79676628112793,-0.03797203674912453,0.0023367409594357014
1686052889843949300,4.46094921875,9.800320625305176,-0.021509507670998573,0.0020494365599006414
1686052889863949300,4.48094921875,9.799936294555664,-0.03296336904168129,-0.002451662439852953
1686052889883949300,4.50094921875,9.797523498535156,-0.02995625138282776,-0.0015322890831157565
1686052889903949300,4.52094921875,9.801976203918457,-0.022237345576286316,0.002106897532939911
1686052889923949300,4.54094921875,9.804313659667969,-0.0341317392885685,-0.014154519885778427
1686052889943949300,4.56094921875,9.801383018493652,-0.036219481378793716,-0.0013215993531048298
1686052889963949300,4.58094921875,9.798539161682129,-0.04028962552547455,-0.008418013341724873
1686052889983949300,4.60094921875,9.791882514953613,-0.02642240934073925,-0.016414646059274673
1686052890003949300,4.62094921875,9.795550346374512,-0.028098350390791893,-0.016452953219413757
1686052890023949300,4.64094921875,9.792619705200195,-0.025933992117643356,-0.010026916861534119
1686052890043949300,4.66094921875,9.794957160949707,-0.022218191996216774,-0.013828909024596214
1686052890063949300,4.68094921875,9.797772407531738,-0.02645113877952099,-0.00969172827899456
1686052890083949300,4.70094921875,9.797992706298828,-0.0446758046746254,-0.015093047171831131
1686052890103949300,4.72094921875,9.798835754394531,-0.025388114154338837,0.0030837319791316986
1686052890123949300,4.74094921875,9.785543441772461,-0.041908107697963715,-0.009346963837742805
1686052890143949300,4.76094921875,9.805883407592773,-0.03028186224400997,-0.011329363100230694
1686052890163949300,4.78094921875,9.799332618713379,-0.03414131700992584,-0.010850521735846996
1686052890183949300,4.80094921875,9.79627799987793,-0.023041797801852226,-0.004922478459775448
1686052890203949300,4.82094921875,9.78996753692627,-0.029678523540496826,-0.010975020006299019
1686052890223949300,4.84094921875,9.791193008422852,-0.017592594027519226,-0.007469909265637398
1686052890243949300,4.86094921875,9.806669235229492,-0.029640216380357742,-0.00684741698205471
1686052890263949300,4.88094921875,9.798002243041992,-0.040864236652851105,-0.014997279271483421
1686052890283949300,4.90094921875,9.796402931213379,-0.03908294811844826,0.007058106362819672
1686052890303949300,4.92094921875,9.808192253112793,-0.03028186224400997,-0.00884896982461214
1686052890323949300,4.94094921875,9.803777694702148,-0.0279642753303051,-0.007201758679002523
1686052890343949300,4.96094921875,9.802091598510742,-0.03187161311507225,-0.013263877481222153
1686052890363949300,4.98094921875,9.800175666809082,-0.027638664469122887,-0.009222464635968208
1686052890383949300,5.00094921875,9.796748161315918,-0.026288334280252457,-0.010754753835499287
1686052890403949300,5.02094921875,9.787095069885254,-0.025550920516252518,-0.011080365628004074
1686052890423949300,5.04094921875,9.79482364654541,-0.03457227349281311,-0.01568681001663208
1686052890443949300,5.06094921875,9.781510353088379,-0.036008793860673904,-0.005956773646175861
1686052890463949300,5.08094921875,9.774721145629883,-0.04127603769302368,-0.0026144683361053467
1686052890483949300,5.10094921875,9.78041934967041,-0.032925061881542206,-0.0056407395750284195
1686052890503949300,5.12094921875,9.801861763000488,-0.025445574894547462,0.00012449848873075098
1686052890523949300,5.14094921875,9.798174858093262,-0.03037763014435768,-0.005707777105271816
1686052890543949300,5.16094921875,9.788368225097656,-0.04051946848630905,-0.004769249819219112
1686052890563949300,5.18094921875,9.790810585021973,-0.02621171995997429,-0.0026719290763139725
1686052890583949300,5.20094921875,9.802857398986816,-0.033921051770448685,-0.003275267779827118
1686052890603949300,5.22094921875,9.793376922607422,-0.032905906438827515,-0.01148259174078703
1686052890623950800,5.240950927734375,9.791289329528809,-0.03296336904168129,-0.00959596037864685
1686052890643950800,5.260950927734375,9.789249420166016,-0.03179499879479408,-0.02722686156630516
1686052890663949300,5.28094921875,9.799036026000977,-0.022045807912945747,-0.00497036287561059
1686052890683950800,5.300950927734375,9.791988372802734,-0.026192566379904747,-0.0043670241720974445
1686052890703949300,5.32094921875,9.794181823730469,-0.03394020348787308,-0.014901511371135712
1686052890723949300,5.34094921875,9.78908634185791,-0.02637452445924282,0.0018483237363398075
1686052890743949300,5.36094921875,9.785676956176758,-0.03168965503573418,-0.01069729309529066
1686052890763949300,5.38094921875,9.82064151763916,-0.032972946763038635,-0.021203050389885902
1686052890783949300,5.40094921875,9.808919906616211,-0.059347473084926605,0.004338293336331844
1686052890803949300,5.42094921875,9.803126335144043,-0.026297910138964653,-0.009030928835272789
1686052890823949300,5.44094921875,9.798739433288574,-0.03323151916265488,-0.01729571260511875
1686052890843949300,5.46094921875,9.809666633605957,-0.032733526080846786,-0.010965443216264248
1686052890863949300,5.48094921875,9.778120994567871,-0.02756205014884472,-0.017851168289780617
1686052890883949300,5.50094921875,9.799314498901367,-0.03288675472140312,-0.013005303218960762
1686052890903949300,5.52094921875,9.797121047973633,-0.020417751744389534,-0.02118389680981636
1686052890923949300,5.54094921875,9.806075096130371,-0.03442861884832382,-0.003064578166231513
1686052890943949300,5.56094921875,9.798730850219727,-0.03194822743535042,-0.013302184641361237
1686052890963949300,5.58094921875,9.786108016967773,-0.034543540328741074,-0.009174580685794353
1686052890983949300,5.60094921875,9.796316146850586,-0.03179499879479408,-0.0029783868230879307
1686052891003949300,5.62094921875,9.78178882598877,-0.021547814831137657,-0.0068186866119503975
1686052891023949300,5.64094921875,9.794296264648438,-0.02009214088320732,-0.004769249819219112
1686052891043949300,5.66094921875,9.795762062072754,-0.036880284547805786,-0.00549708679318428
1686052891063949300,5.68094921875,9.795148849487305,-0.038355108350515366,-0.005870582535862923
1686052891083949300,5.70094921875,9.801430702209473,-0.01803312636911869,-0.01159751322120428
1686052891103949300,5.72094921875,9.769721984863281,-0.01642422378063202,-0.004031835589557886
1686052891123949300,5.74094921875,9.802608489990234,-0.020915746688842773,-0.010151415131986141
1686052891143949300,5.76094921875,9.790360450744629,-0.02557007409632206,-0.010275913402438164
1686052891163949300,5.78094921875,9.800368309020996,-0.034256238490343094,-0.006521805189549923
1686052891183949300,5.80094921875,9.78940200805664,-0.031957805156707764,-0.0164721067994833
1686052891203949300,5.82094921875,9.789095878601074,-0.028807034716010094,-0.01239238865673542
1686052891223949300,5.84094921875,9.786873817443848,-0.034179624170064926,-0.002758120186626911
1686052891243949300,5.86094921875,9.791729927062988,-0.0293816439807415,-0.0026048915460705757
1686052891263949300,5.88094921875,9.794114112854004,-0.0270161721855402,0.0006991068948991597
1686052891283949300,5.90094921875,9.789804458618164,-0.03963840380311012,-0.014575900509953499
1686052891303949300,5.92094921875,9.796154022216797,-0.03418920189142227,-0.006090848706662655
1686052891323949300,5.94094921875,9.786059379577637,-0.0252348855137825,-0.013455414213240147
1686052891343949300,5.96094921875,9.793329238891602,-0.015619771555066109,-0.01357991248369217
1686052891363949300,5.98094921875,9.804965019226074,-0.031909920275211334,-0.00938527099788189
1686052891383949300,6.00094921875,9.799199104309082,-0.03170880675315857,-0.00407014274969697
1686052891403950800,6.020950927734375,9.804533004760742,-0.012564770877361298,-0.020542249083518982
1686052891423949300,6.04094921875,9.8026762008667,-0.01883758045732975,-0.015763424336910248
1686052891443949300,6.06094921875,9.782957077026367,-0.03213018923997879,-0.006023811176419258
1686052891463949300,6.08094921875,9.794429779052734,-0.0449056476354599,-0.0019919758196920156
1686052891483949300,6.10094921875,9.794296264648438,-0.028787881135940552,-0.012775460258126259
1686052891503949300,6.12094921875,9.801037788391113,-0.02803131379187107,-0.002126051113009453
1686052891523949300,6.14094921875,9.803709983825684,-0.03783796355128288,-0.02163400687277317
1686052891543949300,6.16094921875,9.798806190490723,-0.0213275495916605,-0.011731588281691074
1686052891563949300,6.18094921875,9.782506942749023,-0.04083550348877907,-0.008552088402211666
1686052891583949300,6.20094921875,9.802570343017578,-0.0382784940302372,-0.013646950013935566
1686052891603949300,6.22094921875,9.787822723388672,-0.02812708169221878,-0.011559206061065197
1686052891623949300,6.24094921875,9.801679611206055,-0.024698585271835327,-0.004434061702340841
1686052891643949300,6.26094921875,9.78984260559082,-0.030253130942583084,-0.011367670260369778
1686052891663949300,6.28094921875,9.795857429504395,-0.03158430755138397,-0.008667009882628918
1686052891683949300,6.30094921875,9.79361629486084,-0.026345795020461082,-0.004711789079010487
1686052891703949300,6.32094921875,9.81002140045166,-0.03193864971399307,-0.024258051067590714
1686052891723950800,6.340950927734375,9.802062034606934,-0.03274310380220413,-0.0051714759320020676
1686052891743949300,6.36094921875,9.799649238586426,-0.030128633603453636,-0.011616666801273823
1686052891763949300,6.38094921875,9.803528785705566,-0.021643582731485367,-0.02682463638484478
1686052891783949300,6.40094921875,9.780917167663574,-0.04054819792509079,-0.014537593349814415
1686052891803949300,6.42094921875,9.77730655670166,-0.03826892003417015,-0.017429787665605545
1686052891823949300,6.44094921875,9.794975280761719,-0.03807738423347473,-0.009557653218507767
1686052891843949300,6.46094921875,9.79787826538086,-0.031976956874132156,-0.008571241982281208
1686052891863949300,6.48094921875,9.785274505615234,-0.03139277175068855,-0.004472368862479925
1686052891883949300,6.50094921875,9.805912971496582,-0.019488802179694176,-0.019086576998233795
1686052891903949300,6.52094921875,9.787238121032715,-0.030243555083870888,-0.02433466538786888
1686052891923949300,6.54094921875,9.876618385314941,0.04623682424426079,1.455655574798584
1686052891943949300,6.56094921875,9.765929222106934,-0.09662998467683792,-0.548818051815033
1686052891963949300,6.58094921875,9.786079406738281,-0.04651454836130142,-0.6888501644134521
1686052891983949300,6.60094921875,9.788386344909668,-0.024794353172183037,0.4280737042427063
1686052892003949300,6.62094921875,9.798089027404785,-0.022926876321434975,-0.10963528603315353
1686052892023949300,6.64094921875,9.792840957641602,-0.01616564951837063,-0.07140467315912247
1686052892043949300,6.66094921875,9.796029090881348,0.020446481183171272,0.24803929030895233
1686052892063949300,6.68094921875,9.799448013305664,-0.050651729106903076,-0.19232143461704254
1686052892083949300,6.70094921875,9.783474922180176,-0.010093954391777515,0.06779421120882034
1686052892103949300,6.72094921875,9.783129692077637,-0.023242909461259842,-0.01724782958626747
1686052892123949300,6.74094921875,9.785179138183594,-0.007987056858837605,0.021883003413677216
1686052892143949300,6.76094921875,9.79268741607666,-0.07777324318885803,-0.1051054522395134
1686052892163949300,6.78094921875,9.804572105407715,-0.04589205980300903,0.08658390492200851
1686052892183949300,6.80094921875,9.78718090057373,0.028519731014966965,0.09346963465213776
1686052892203949300,6.82094921875,9.746498107910156,-0.03718674182891846,-0.07504386454820633
1686052892223949300,6.84094921875,9.785955429077148,0.03497450053691864,0.21812134981155396
1686052892243949300,6.86094921875,9.799409866333008,-0.06087975949048996,-0.03534799441695213
1686052892263949300,6.88094921875,9.77784252166748,-0.042645517736673355,0.08764693140983582
1686052892283949300,6.90094921875,9.803911209106445,-0.09014648199081421,0.0677654892206192
1686052892303949300,6.92094921875,9.78402042388916,-0.0649307444691658,-0.033614594489336014
1686052892323949300,6.94094921875,9.786011695861816,-0.026757599785923958,0.11511322110891342
1686052892343949300,6.96094921875,9.8103666305542,-0.032972946763038635,-0.04258805885910988
1686052892363949300,6.98094921875,9.763066291809082,0.001953668659552932,-0.021126436069607735
1686052892383949300,7.00094921875,9.77356243133545,-0.053553506731987,0.018138471990823746
1686052892403949300,7.02094921875,9.780630111694336,-0.04585375264286995,-0.10538318008184433
1686052892423949300,7.04094921875,9.793146133422852,-0.020772093906998634,0.035577837377786636
1686052892443949300,7.06094921875,9.80925464630127,-0.004319139756262302,0.07165367156267166
1686052892463949300,7.08094921875,9.78504467010498,-0.001924938173033297,-0.012124236673116684
1686052892483949300,7.10094921875,9.823370933532715,-0.02462197095155716,0.021260511130094528
1686052892503949300,7.12094921875,9.805453300476074,-0.08198704570531845,-0.21428105235099792
1686052892523949300,7.14094921875,9.789679527282715,-0.045959096401929855,0.058399368077516556
1686052892543949300,7.16094921875,9.777095794677734,0.01976652815937996,0.03646847978234291
1686052892563949300,7.18094921875,9.78205680847168,-0.02182554267346859,0.09321106225252151
1686052892583949300,7.20094921875,9.803327560424805,-0.008427590131759644,-0.043114785104990005
1686052892603949300,7.22094921875,9.783426284790039,-0.0836438313126564,-0.020111294463276863
1686052892623949300,7.24094921875,9.79753303527832,-0.03773261979222298,-0.07188351452350616
1686052892643949300,7.26094921875,9.796499252319336,-0.040768466889858246,-0.15836207568645477
1686052892663949300,7.28094921875,9.793242454528809,0.0688476637005806,0.16547764837741852
1686052892683949300,7.30094921875,9.819119453430176,-0.029697677120566368,-0.06455725431442261
1686052892703949300,7.32094921875,9.801871299743652,-0.1934993714094162,-0.15806519985198975
1686052892723949300,7.34094921875,9.775965690612793,-0.13391248881816864,-0.06513186544179916
1686052892743949300,7.36094921875,9.768936157226562,-0.035577837377786636,-0.08343314379453659
1686052892763949300,7.38094921875,9.794832229614258,-0.0035051112063229084,0.1392563432455063
1686052892783949300,7.40094921875,9.800703048706055,0.09181284159421921,0.09049125015735626
1686052892803949300,7.42094921875,9.7825927734375,-0.05780560523271561,-0.0922916904091835
1686052892823949300,7.44094921875,9.794429779052734,-0.013110647909343243,0.06466259807348251
1686052892843949300,7.46094921875,9.795148849487305,-0.07779240608215332,-0.1433647871017456
1686052892863949300,7.48094921875,9.78282356262207,-0.014221558347344398,0.12783122062683105
1686052892883949300,7.50094921875,9.80272388458252,-0.0026527754962444305,0.1026059091091156
1686052892903949300,7.52094921875,9.751852035522461,0.027073632925748825,0.09240660816431046
1686052892923949300,7.54094921875,9.773188591003418,0.03616202250123024,0.006483498029410839
1686052892943949300,7.56094921875,9.796134948730469,-0.05703946202993393,-0.01578257791697979
1686052892963949300,7.58094921875,9.775803565979004,-0.11308293044567108,0.009844956919550896
1686052892983949300,7.60094921875,9.791413307189941,-0.0013407529331743717,0.03313574939966202
1686052893003949300,7.62094921875,9.806927680969238,0.045365333557128906,0.03371993452310562
1686052893023949300,7.64094921875,9.811668395996094,-0.09540415555238724,-0.09899545460939407
1686052893043949300,7.66094921875,9.781233787536621,-0.09686940163373947,-0.18240943551063538
1686052893063949300,7.68094921875,9.793702125549316,0.06223009154200554,0.2274012714624405
1686052893083949300,7.70094921875,9.774807929992676,0.3999849259853363,0.38628047704696655
1686052893103949300,7.72094921875,9.808891296386719,0.08012913912534714,0.003677493892610073
1686052893123949300,7.74094921875,9.771081924438477,-0.5241865515708923,-0.11913547664880753
1686052893143949300,7.76094921875,9.797781944274902,-0.2297571748495102,-0.13841359317302704
1686052893163949300,7.78094921875,9.783483505249023,-0.06573519855737686,0.04758715257048607
1686052893183949300,7.80094921875,9.782793998718262,0.1285303235054016,0.04248271510004997
1686052893203949300,7.82094921875,9.774299621582031,-0.001158793573267758,0.028443116694688797
1686052893223949300,7.84094921875,9.781558990478516,-0.19694703817367554,-0.09818142652511597
1686052893243949300,7.86094921875,9.821647644042969,-0.008973468095064163,-0.027427975088357925
1686052893263949300,7.88094921875,9.849764823913574,0.28353095054626465,0.12491029500961304
1686052893283949300,7.90094921875,9.860577583312988,0.46565306186676025,0.10192595422267914
1686052893303949300,7.92094921875,9.796862602233887,-0.34360626339912415,-0.15785451233386993
1686052893323949300,7.94094921875,9.740388870239258,-0.418046772480011,-0.14860332012176514
1686052893343949300,7.96094921875,9.763784408569336,-0.061483100056648254,-0.10463619232177734
1686052893363949300,7.98094921875,9.789718627929688,0.1470518708229065,0.08515696972608566
1686052893383949300,8.00094921875,9.780352592468262,0.05081453546881676,0.05575616657733917
1686052893403949300,8.02094921875,9.800252914428711,-0.4013831317424774,-0.23445938527584076
1686052893423949300,8.04094921875,9.766618728637695,-0.1990251988172531,-0.15951129794120789
1686052893443949300,8.06094921875,9.805970191955566,0.12084972113370895,-0.04962701350450516
1686052893463949300,8.08094921875,9.785456657409668,0.14840218424797058,-0.03945644199848175
1686052893483949300,8.10094921875,9.813315391540527,0.02134670317173004,0.017688361927866936
1686052893503949300,8.12094921875,9.816246032714844,-0.22937409579753876,0.025043349713087082
1686052893523949300,8.14094921875,9.80784797668457,-0.047453079372644424,0.04767334461212158
1686052893543949300,8.16094921875,9.77250862121582,0.1659086048603058,0.09450393170118332
1686052893563949300,8.18094921875,9.771484375,-0.06151182949542999,0.13641203939914703
1686052893583949300,8.20094921875,9.758075714111328,-0.281060129404068,0.1704767346382141
1686052893603949300,8.22094921875,9.817423820495605,-0.09294290840625763,0.06532340496778488
1686052893623949300,8.24094921875,9.75179386138916,0.0911233127117157,-0.06264188885688782
1686052893643949300,8.26094921875,9.85215950012207,0.12859736382961273,-0.0071059903129935265
1686052893663949300,8.28094921875,9.802579879760742,-0.08569326996803284,0.03588429465889931
1686052893683949300,8.30094921875,9.725822448730469,-0.15914736688137054,0.01715206168591976
1686052893703949300,8.32094921875,9.795100212097168,0.08499416708946228,-0.030722396448254585
1686052893723949300,8.34094921875,9.803413391113281,0.18183481693267822,-0.22396321594715118
1686052893743949300,8.36094921875,9.795072555541992,0.019057845696806908,-0.020772093906998634
1686052893763949300,8.38094921875,9.7586030960083,-0.07840532064437866,0.09239703416824341
1686052893783949300,8.40094921875,9.796709060668945,-0.004185064695775509,-0.06031472608447075
1686052893803949300,8.42094921875,9.805356979370117,0.08296387642621994,-0.09561483561992645
1686052893823949300,8.44094921875,9.824644088745117,-0.06942227482795715,-0.10765288770198822
1686052893843949300,8.46094921875,9.757989883422852,-0.11203905940055847,0.032666489481925964
1686052893863949300,8.48094921875,9.83389663696289,-0.10264421999454498,0.030482977628707886
1686052893883949300,8.50094921875,9.705921173095703,-0.03180457651615143,0.2376580387353897
1686052893903949300,8.52094921875,9.776483535766602,-0.08388324826955795,0.14446613192558289
1686052893923949300,8.54094921875,9.80969524383545,0.20624610781669617,0.2754289507865906
1686052893943949300,8.56094921875,9.777374267578125,-0.0684741660952568,0.24431392550468445
1686052893963949300,8.58094921875,9.8056640625,-0.18598158657550812,-0.03274310380220413
1686052893983949300,8.60094921875,9.750923156738281,-0.07411490380764008,-0.0947912335395813
1686052894003949300,8.62094921875,9.83303451538086,-0.03828807547688484,-0.1637250781059265
1686052894023949300,8.64094921875,9.883609771728516,-0.14322113990783691,-0.184372678399086
1686052894043949300,8.66094921875,9.738089561462402,-0.14104720950126648,-0.1528266817331314
1686052894063949300,8.68094921875,9.777545928955078,-0.08724471181631088,-0.1406354010105133
1686052894083949300,8.70094921875,9.78134822845459,0.08284895122051239,0.006014234386384487
1686052894103949300,8.72094921875,9.76009750366211,0.17127160727977753,0.027265168726444244
1686052894123949300,8.74094921875,9.75846004486084,-0.13014879822731018,-0.15288414061069489
1686052894143949300,8.76094921875,9.750338554382324,-0.12423034012317657,0.08213069289922714
1686052894163949300,8.78094921875,9.794084548950195,0.11836933344602585,0.14033852517604828
1686052894183949300,8.80094921875,9.749408721923828,0.16258545219898224,-0.05104437842965126
1686052894203949300,8.82094921875,9.759552001953125,0.0023463177494704723,0.0871010571718216
1686052894223949300,8.84094921875,9.814196586608887,-0.07102160155773163,0.10293152183294296
1686052894243949300,8.86094921875,9.796499252319336,-0.06044880300760269,-0.09887095540761948
1686052894263949300,8.88094921875,9.794018745422363,-0.13014879822731018,-0.13901692628860474
1686052894283949300,8.90094921875,9.736759185791016,-0.14245499670505524,-0.14318284392356873
1686052894303949300,8.92094921875,9.852619171142578,-0.20755814015865326,-0.19259916245937347
1686052894323949300,8.94094921875,9.795866012573242,0.040203433483839035,0.07261135429143906
1686052894343949300,8.96094921875,9.825133323669434,0.14122916758060455,0.08178592473268509
1686052894363949300,8.98094921875,9.80370044708252,0.1464485377073288,0.052567094564437866
1686052894383949300,9.00094921875,9.810050010681152,-0.007661445531994104,0.03267606347799301
1686052894403949300,9.02094921875,9.81656265258789,-0.020532673224806786,0.100355364382267
1686052894423950800,9.040950927734375,9.746182441711426,-0.039916131645441055,-0.03801034390926361
1686052894443949300,9.06094921875,9.794909477233887,-0.03291548416018486,-0.03853707015514374
1686052894463949300,9.08094921875,9.79736042022705,0.08848969638347626,0.18229450285434723
1686052894483949300,9.10094921875,9.757530212402344,-0.01838746853172779,-0.19166062772274017
1686052894503949300,9.12094921875,9.766532897949219,-0.29680436849594116,-0.09786538779735565
1686052894523949300,9.14094921875,9.79899787902832,-0.23431573808193207,-0.1378006786108017
1686052894543949300,9.16094921875,9.759552001953125,-0.07022672146558762,-0.16290149092674255
1686052894563949300,9.18094921875,9.779251098632812,-0.059232551604509354,-0.0794970691204071
1686052894583949300,9.20094921875,9.843990325927734,0.12678734958171844,0.12445060908794403
1686052894603949300,9.22094921875,9.76756763458252,0.04526956379413605,-0.020647596567869186
1686052894623949300,9.24094921875,9.800492286682129,-0.1169615387916565,-0.020245369523763657
1686052894643949300,9.26094921875,9.806583404541016,-0.13012006878852844,-0.046811431646347046
1686052894663949300,9.28094921875,9.818170547485352,0.03476380929350853,0.06366661190986633
1686052894683949300,9.30094921875,9.791729927062988,0.18269674479961395,0.11561121046543121
1686052894703949300,9.32094921875,9.795943260192871,0.042118798941373825,0.08670841157436371
1686052894723949300,9.34094921875,9.792218208312988,-0.012526463717222214,0.17842549085617065
1686052894743949300,9.36094921875,9.81143856048584,-0.12083057314157486,-0.11363838613033295
1686052894763950800,9.380950927734375,9.785361289978027,-0.05632119998335838,-0.08574114739894867
1686052894783949300,9.40094921875,9.788262367248535,-0.1954817771911621,-0.36913803219795227
1686052894803949300,9.42094921875,9.785475730895996,-0.16175226867198944,-0.35574963688850403
1686052894823949300,9.44094921875,9.808728218078613,-0.01222958229482174,-0.011042057536542416
1686052894843949300,9.46094921875,9.804112434387207,-0.005219359882175922,0.011702857911586761
1686052894863949300,9.48094921875,9.787544250488281,-0.027763161808252335,-0.0008810661965981126
1686052894883949300,9.50094921875,9.811639785766602,-0.0010821791365742683,-0.004156333860009909
1686052894903949300,9.52094921875,9.796642303466797,-0.030885202810168266,-0.0075561003759503365
1686052894923949300,9.54094921875,9.786270141601562,-0.011156979948282242,0.002892195712774992
1686052894943949300,9.56094921875,9.792773246765137,-0.014470554888248444,0.0004405330982990563
1686052894963952400,9.580952392578125,9.801584243774414,-0.027638664469122887,0.0003734954516403377
1686052894983949300,9.60094921875,9.8019380569458,-0.026441562920808792,0.005880159325897694
1686052895003949300,9.62094921875,9.784076690673828,-0.008983044885098934,0.0009002198348753154
1686052895023949300,9.64094921875,9.783838272094727,-0.01099417358636856,-0.00958638358861208
1686052895043949300,9.66094921875,9.782689094543457,-0.00883939303457737,-0.0009193734731525183
1686052895063949300,9.68094921875,9.780707359313965,-0.01628057099878788,-0.00031603462412022054
1686052895083949300,9.70094921875,9.79868221282959,-0.007249642629176378,0.0016855180729180574
1686052895103949300,9.72094921875,9.774567604064941,-0.009892841801047325,-0.012899958528578281
1686052895123949300,9.74094921875,9.773112297058105,-0.01114740315824747,0.0013886369997635484
1686052895143949300,9.76094921875,9.779480934143066,-0.015284583903849125,-0.002834734972566366
1686052895163949300,9.78094921875,9.794755935668945,-0.013953407295048237,0.0030166939832270145
1686052895183949300,9.80094921875,9.80107593536377,-0.016462530940771103,-0.0039360676892101765
1686052895203949300,9.82094921875,9.799553871154785,-0.015648502856492996,0.010812214575707912
1686052895223949300,9.84094921875,9.792801856994629,-0.01079306099563837,-0.014068328775465488
1686052895243949300,9.86094921875,9.781012535095215,-0.01936430297791958,-0.003572148969396949
1686052895263949300,9.88094921875,9.778226852416992,-0.026805482804775238,-0.004223371855914593
1686052895283949300,9.90094921875,9.789958000183105,-0.0004405330982990563,-0.017199944704771042
1686052895303949300,9.92094921875,9.79623031616211,-0.012631808407604694,-0.008264783769845963
1686052895323949300,9.94094921875,9.808115005493164,-0.0187226589769125,-0.0039169141091406345
1686052895343949300,9.96094921875,9.794534683227539,-0.019460070878267288,-0.0019823990296572447
1686052895363949300,9.98094921875,9.792074203491211,-0.006924031302332878,0.000823605339974165
1686052895383949300,10.00094921875,9.802072525024414,-0.009251195006072521,-0.0020590133499354124
1686052895403949300,10.02094921875,9.787458419799805,-0.019795259460806847,-0.009155427105724812
1686052895423949300,10.04094921875,9.778695106506348,-0.023702597245573997,0.004405331332236528
1686052895443949300,10.06094921875,9.803384780883789,-0.01068771630525589,-0.005008670035749674
1686052895463949300,10.08094921875,9.800885200500488,-0.007661445531994104,-0.010773907415568829
1686052895483949300,10.10094921875,9.782622337341309,-0.02727474644780159,0.020647596567869186
1686052895503949300,10.12094921875,9.80451488494873,-0.018684351816773415,-0.0005458780215121806
1686052895523949300,10.14094921875,9.795022964477539,-0.008552088402211666,0.001944091753102839
1686052895543949300,10.16094921875,9.786280632019043,-0.02094447799026966,-0.0012162544298917055
1686052895563949300,10.18094921875,9.798317909240723,-0.01864604465663433,0.005018246825784445
1686052895583949300,10.20094921875,9.79371166229248,-0.015294160693883896,-0.003734954632818699
1686052895603949300,10.22094921875,9.787400245666504,-0.010524910874664783,-0.004932055249810219
1686052895623949300,10.24094921875,9.786672592163086,-0.006694188341498375,0.0035529951564967632
1686052895643949300,10.26094921875,9.780811309814453,-0.026853367686271667,-0.006713341921567917
1686052895663950800,10.280950927734375,9.788904190063477,-0.015466542914509773,-0.012114659883081913
1686052895683949300,10.30094921875,9.783513069152832,-0.008705317042768002,-0.006081271916627884
1686052895703949300,10.32094921875,9.797618865966797,-0.0023654713295400143,0.0037732617929577827
1686052895723949300,10.34094921875,9.77197265625,-0.0201400239020586,0.010745177045464516
1686052895743950800,10.360950927734375,9.797082901000977,-0.005085284356027842,-0.01068771630525589
1686052895763949300,10.38094921875,9.777297019958496,-0.008092401549220085,-0.017544711008667946
1686052895783949300,10.40094921875,9.788492202758789,-0.009969456121325493,-0.0010247182799503207
1686052895803949300,10.42094921875,9.80277156829834,-0.01398213766515255,-0.00033518823329359293
1686052895823949300,10.44094921875,9.783273696899414,-0.028050467371940613,-0.00703895278275013
1686052895843949300,10.46094921875,9.798643112182617,-0.013551182113587856,0.004079719539731741
1686052895863949300,10.48094921875,9.790541648864746,-0.015725117176771164,-0.007230489049106836
1686052895883949300,10.50094921875,9.787908554077148,-0.023664290085434914,-0.007747636642307043
1686052895903949300,10.52094921875,9.779183387756348,-0.019373880699276924,-0.017468096688389778
1686052895923949300,10.54094921875,9.793357849121094,-0.023156719282269478,-0.016558298841118813
1686052895943949300,10.56094921875,9.790465354919434,-0.026767175644636154,-0.009366117417812347
1686052895963949300,10.58094921875,9.800760269165039,-0.004568136762827635,-0.00022026654914952815
1686052895983949300,10.60094921875,9.785591125488281,-0.0164721067994833,-0.005793968215584755
1686052896003949300,10.62094921875,9.788176536560059,-0.01698925532400608,-0.018923770636320114
1686052896023949300,10.64094921875,9.794401168823242,-0.007364564575254917,0.0005841852398589253
1686052896043949300,10.66094921875,9.798988342285156,-0.01589749939739704,0.006445190869271755
1686052896063949300,10.68094921875,9.791316986083984,-0.0008331821882165968,-0.008628702722489834
1686052896083949300,10.70094921875,9.773150444030762,-0.02153823897242546,-0.0071730283088982105
1686052896103949300,10.72094921875,9.7801513671875,-0.008197746239602566,-0.011080365628004074
1686052896123949300,10.74094921875,9.782851219177246,-0.0026527754962444305,-0.008858546614646912
1686052896143949300,10.76094921875,9.795330047607422,-0.006579265929758549,-0.006837840192019939
1686052896163949300,10.78094921875,9.791882514953613,-0.00703895278275013,-0.004759673029184341
1686052896183949300,10.80094921875,9.792169570922852,-0.0009289502631872892,-0.0036104561295360327
1686052896203949300,10.82094921875,9.777786254882812,-0.005056553985923529,0.005334281362593174
1686052896223949300,10.84094921875,9.800722122192383,-0.00759440753608942,0.010199299082159996
1686052896243949300,10.86094921875,9.76591968536377,-0.011607090011239052,0.002231396036222577
1686052896263949300,10.88094921875,9.788664817810059,-0.0071826050989329815,-0.0068282634019851685
1686052896283949300,10.90094921875,9.774548530578613,-0.0031603462994098663,-0.00771890627220273
1686052896303949300,10.92094921875,9.78609848022461,-0.009193734265863895,0.006904877722263336
1686052896323949300,10.94094921875,9.780323028564453,-0.005765237845480442,-0.007900865748524666
1686052896343949300,10.96094921875,9.793558120727539,-0.005813121795654297,0.000028730421036016196
1686052896363949300,10.98094921875,9.793980598449707,-0.005765237845480442,-0.004539406392723322
1686052896383949300,11.00094921875,9.782803535461426,-0.009979032911360264,0.0026048915460705757
1686052896403949300,11.02094921875,9.788962364196777,-0.028950687497854233,-0.012928688898682594
1686052896423949300,11.04094921875,9.79056167602539,-0.02692040428519249,0.005726930685341358
1686052896443950800,11.060950927734375,9.782698631286621,-0.0020590133499354124,-0.01114740315824747
1686052896463949300,11.08094921875,9.773944854736328,0.02033155970275402,-0.0017525556031614542
1686052896483949300,11.10094921875,9.792820930480957,0.0025282769929617643,-0.007987056858837605
1686052896503949300,11.12094921875,9.785600662231445,-0.025752034038305283,-0.019900605082511902
1686052896523949300,11.14094921875,9.79148006439209,-0.03753150627017021,0.004893748089671135
1686052896543949300,11.16094921875,9.787956237792969,-0.005631162319332361,0.00032561144325882196
1686052896563949300,11.18094921875,9.788138389587402,0.011214440688490868,-0.007833828218281269
1686052896583949300,11.20094921875,9.79584789276123,-0.02855803817510605,-0.010304644703865051
1686052896603949300,11.22094921875,9.786347389221191,-0.012832920998334885,-0.009097966365516186
1686052896623949300,11.24094921875,9.787755012512207,-0.00397437484934926,0.003859453136101365
1686052896643949300,11.26094921875,9.79086685180664,-0.009471462108194828,0.006550535559654236
1686052896663949300,11.28094921875,9.785562515258789,-0.02888364903628826,-0.019297266378998756
1686052896683949300,11.30094921875,9.776445388793945,-0.013445837423205376,-0.012334927916526794
1686052896703950800,11.320950927734375,9.79149055480957,0.002853888552635908,-0.005822698585689068
1686052896723950800,11.340950927734376,9.786931991577148,-0.0063685765489935875,-0.00452025281265378
1686052896743949300,11.36094921875,9.800779342651367,-0.020178331062197685,-0.006406883709132671
1686052896763950800,11.380950927734375,9.790522575378418,-0.021835118532180786,-0.013532028533518314
1686052896783950800,11.400950927734375,9.782448768615723,-0.015198391862213612,-0.004711789079010487
1686052896803949300,11.42094921875,9.78674030303955,-0.0241718590259552,-0.00594719685614109
1686052896823949300,11.44094921875,9.797743797302246,-0.014614207670092583,-0.006464344449341297
1686052896843949300,11.46094921875,9.77610969543457,-0.01668279804289341,-0.00007661445124540478
1686052896863949300,11.48094921875,9.78320598602295,-0.018492812290787697,0.0012066776398569345
1686052896883949300,11.50094921875,9.799898147583008,-0.01589749939739704,-0.001149216783232987
1686052896903949300,11.52094921875,9.78353214263916,-0.003371036145836115,0.0018004396697506309
1686052896923949300,11.54094921875,9.78913402557373,-0.006062118336558342,0.007920019328594208
1686052896943949300,11.56094921875,9.790790557861328,-0.004347870126366615,0.0035146879963576794
1686052896963949300,11.58094921875,9.78969955444336,-0.009030928835272789,0.004577713552862406
1686052896983949300,11.60094921875,9.793673515319824,-0.005018246825784445,0.01228704396635294
1686052897003949300,11.62094921875,9.803394317626953,-0.021547814831137657,-0.0051044379360973835
1686052897023949300,11.64094921875,9.790665626525879,-0.010371682234108448,0.003351882565766573
1686052897043949300,11.66094921875,9.791059494018555,-0.009806649759411812,-0.0029592332430183887
1686052897063949300,11.68094921875,9.77721118927002,-0.027552472427487373,-0.005669469945132732
1686052897083949300,11.70094921875,9.798672676086426,-0.014365210197865963,0.012306197546422482
1686052897103949300,11.72094921875,9.788435935974121,-0.007345410995185375,0.0010055646998807788
1686052897123949300,11.74094921875,9.790915489196777,-0.011013327166438103,-0.014834473840892315
1686052897143949300,11.76094921875,9.776664733886719,-0.024152705445885658,0.00274854339659214
1686052897163949300,11.78094921875,9.788176536560059,-0.018550273030996323,-0.00011492168414406478
1686052897183949300,11.80094921875,9.809446334838867,-0.023989900946617126,0.0037828385829925537
1686052897203949300,11.82094921875,9.798222541809082,-0.012995726428925991,0.003897760296240449
1686052897223949300,11.84094921875,9.794267654418945,-0.0063973069190979,-0.007326257415115833
1686052897243949300,11.86094921875,9.784680366516113,-0.025483882054686546,-0.005726930685341358
1686052897263949300,11.88094921875,9.795809745788574,-0.022955605760216713,-0.005889736115932465
1686052897283949300,11.90094921875,9.778964042663574,-0.0015322890831157565,-0.005956773646175861
1686052897303949300,11.92094921875,9.804600715637207,-0.02642240934073925,-0.01697010174393654
1686052897323949300,11.94094921875,9.786702156066895,-0.0036104561295360327,-0.0047309426590800285
1686052897343949300,11.96094921875,9.784001350402832,-0.01288080494850874,-0.00164721067994833
1686052897363949300,11.98094921875,9.790465354919434,-0.01189439371228218,-0.006933608092367649
1686052897383949300,12.00094921875,9.785466194152832,-0.024440009146928787,-0.00009576806769473478
1686052897403949300,12.02094921875,9.783771514892578,-0.01724782958626747,-0.0010247182799503207
1686052897423949300,12.04094921875,9.788119316101074,-0.00484586413949728,-0.0012354080099612474
1686052897443950800,12.060950927734375,9.790081977844238,-0.016175225377082825,-0.0042808325961232185
1686052897463949300,12.08094921875,9.798242568969727,-0.01058237161487341,-0.01268926914781332
1686052897483949300,12.10094921875,9.792831420898438,-0.01801397278904915,-0.010802637785673141
1686052897503949300,12.12094921875,9.786050796508789,-0.017362751066684723,0.0027102362364530563
1686052897523949300,12.14094921875,9.794343948364258,-0.005688623525202274,-0.012813767418265343
1686052897543949300,12.16094921875,9.764551162719727,-0.013235146179795265,-0.018942924216389656
1686052897563949300,12.18094921875,9.796805381774902,0.005363011732697487,-0.01947922445833683
1686052897583949300,12.20094921875,9.79356861114502,-0.012909535318613052,0.004539406392723322
1686052897603949300,12.22094921875,9.788348197937012,-0.024325087666511536,-0.0018579005263745785
1686052897623949300,12.24094921875,9.809618949890137,-0.0008714894065633416,-0.011367670260369778
1686052897643949300,12.26094921875,9.81694507598877,0.00022026654914952815,0.010773907415568829
1686052897663949300,12.28094921875,9.801765441894531,0.009519346058368683,0.0018195933662354946
1686052897683949300,12.30094921875,9.853050231933594,-0.001110909623093903,-0.016759412363171577
1686052897703949300,12.32094921875,9.894392967224121,-0.0070964135229587555,-0.00017238251166418195
1686052897723949300,12.34094921875,10.01230239868164,0.014633361250162125,-0.004175487905740738
1686052897743949300,12.36094921875,9.846163749694824,0.008130708709359169,-0.03478296101093292
1686052897763949300,12.38094921875,9.754695892333984,0.042616792023181915,-0.006416460499167442
1686052897783949300,12.40094921875,9.664913177490234,0.07048530131578445,-0.012717999517917633
1686052897803949300,12.42094921875,9.661503791809082,0.09475293010473251,-0.012765883468091488
1686052897823949300,12.44094921875,9.787429809570312,0.08443870395421982,-0.004481945652514696
1686052897843949300,12.46094921875,9.835285186767578,0.1080455332994461,-0.012401965446770191
1686052897863949300,12.48094921875,9.819396018981934,0.12368446588516235,0.044991835951805115
1686052897883949300,12.50094921875,9.834547996520996,0.13523408770561218,0.2586407959461212
1686052897903949300,12.52094921875,10.13082504272461,0.14964719116687775,-0.054731450974941254
1686052897923949300,12.54094921875,10.418923377990723,0.1532193273305893,-0.09359413385391235
1686052897943949300,12.56094921875,10.554158210754395,0.13942871987819672,-0.2285313457250595
1686052897963949300,12.58094921875,10.267303466796875,0.2519274652004242,-0.022802377119660378
1686052897983949300,12.60094921875,10.0706148147583,0.32670319080352783,0.004357446916401386
1686052898003949300,12.62094921875,10.16990852355957,0.4146948754787445,0.015504850074648857
1686052898023949300,12.64094921875,10.224294662475586,0.5188330411911011,-0.00529597420245409
1686052898043949300,12.66094921875,10.26862621307373,0.6215730309486389,-0.006167463958263397
1686052898063949300,12.68094921875,10.089558601379395,0.744405210018158,0.017381904646754265
1686052898083949300,12.70094921875,9.647560119628906,0.9385557770729065,0.10514376312494278
1686052898103949300,12.72094921875,9.052830696105957,1.169806957244873,0.35863226652145386
1686052898123949300,12.74094921875,9.055636405944824,1.1199405193328857,-0.19936996698379517
1686052898143949300,12.76094921875,9.223115921020508,1.2565728425979614,-0.14805743098258972
1686052898163949300,12.78094921875,9.247517585754395,1.4130290746688843,0.06858909130096436
1686052898183949300,12.80094921875,9.373414993286133,1.477021336555481,0.09883265197277069
1686052898203949300,12.82094921875,9.405305862426758,1.5519503355026245,0.07387548685073853
1686052898223949300,12.84094921875,9.654982566833496,1.5782768726348877,-0.02246718853712082
1686052898243949300,12.86094921875,9.765019416809082,1.6761518716812134,0.016175225377082825
1686052898263949300,12.88094921875,9.93718147277832,1.622301459312439,-0.12770672142505646
1686052898283949300,12.90094921875,9.888406753540039,1.6392619609832764,-0.3366535007953644
1686052898303949300,12.92094921875,9.778312683105469,1.8383829593658447,0.07452671229839325
1686052898323949300,12.94094921875,9.643221855163574,1.8823500871658325,0.00884896982461214
1686052898343949300,12.96094921875,9.623283386230469,1.9714336395263672,-0.013551182113587856
1686052898363949300,12.98094921875,9.893147468566895,2.0320260524749756,-0.02603933773934841
1686052898383949300,13.00094921875,9.588471412658691,2.1539101600646973,0.016050728037953377
1686052898403949300,13.02094921875,9.565716743469238,2.2118401527404785,0.023798365145921707
1686052898423949300,13.04094921875,9.617278099060059,2.332766532897949,0.024181436747312546
1686052898443949300,13.06094921875,9.507796287536621,2.413393497467041,-0.021404163911938667
1686052898463949300,13.08094921875,9.251031875610352,2.5231149196624756,0.04642836004495621
1686052898483949300,13.10094921875,9.501925468444824,2.6557538509368896,0.03299209848046303
1686052898503949300,13.12094921875,9.07788372039795,2.7014639377593994,0.016223110258579254
1686052898523949300,13.14094921875,9.31714153289795,2.7816312313079834,0.00868616346269846
1686052898543949300,13.16094921875,9.461875915527344,2.8558995723724365,0.049397170543670654
1686052898563949300,13.18094921875,9.812004089355469,2.8909027576446533,0.04424484819173813
1686052898583949300,13.20094921875,9.340738296508789,2.9751882553100586,-0.07473740726709366
1686052898603949300,13.22094921875,9.434266090393066,3.092350721359253,0.00416591065004468
1686052898623949300,13.24094921875,9.24812126159668,3.227288007736206,0.13845188915729523
1686052898643949300,13.26094921875,8.802186965942383,3.2260143756866455,-0.11405976861715317
1686052898663949300,13.28094921875,8.618839263916016,3.4111244678497314,-0.056436121463775635
1686052898683949300,13.30094921875,8.9170503616333,3.3816471099853516,-0.07594407349824905
1686052898703949300,13.32094921875,9.023229598999023,3.4616899490356445,0.03180457651615143
1686052898723949300,13.34094921875,9.132375717163086,3.4605696201324463,-0.04448426887392998
1686052898743949300,13.36094921875,8.975412368774414,3.583554983139038,0.06031472608447075
1686052898763949300,13.38094921875,8.93691349029541,3.6164894104003906,0.0060429647564888
1686052898783949300,13.40094921875,8.72431755065918,3.656712055206299,-0.001149216783232987
1686052898803949300,13.42094921875,8.489130973815918,3.716423511505127,0.005334281362593174
1686052898823949300,13.44094921875,8.557490348815918,3.7311909198760986,0.0072687966749072075
1686052898843949300,13.46094921875,8.699581146240234,3.7332117557525635,0.002212242456153035
1686052898863949300,13.48094921875,8.691421508789062,3.7158203125,-0.03031059354543686
1686052898883949300,13.50094921875,8.576499938964844,3.700784683227539,0.007651868741959333
1686052898903949300,13.52094921875,8.49524974822998,3.6680126190185547,0.016309302300214767
1686052898923949300,13.54094921875,8.533806800842285,3.620511770248413,-0.020446481183171272
1686052898943949300,13.56094921875,8.624038696289062,3.5565388202667236,0.018061857670545578
1686052898963949300,13.58094921875,8.752406120300293,3.445830821990967,-0.02613510563969612
1686052898983949300,13.60094921875,9.002716064453125,3.3572070598602295,0.05252878740429878
1686052899003949300,13.62094921875,9.321172714233398,3.2546586990356445,-0.0018483237363398075
1686052899023949300,13.64094921875,9.550777435302734,3.160480260848999,-0.03215891495347023
1686052899043949300,13.66094921875,9.507997512817383,3.078387975692749,0.009634267538785934
1686052899063949300,13.68094921875,9.228402137756348,3.0083718299865723,0.02206496149301529
1686052899083949300,13.70094921875,9.11113452911377,2.949934244155884,0.008705317042768002
1686052899103949300,13.72094921875,9.24118709564209,2.8345625400543213,-0.005679046735167503
1686052899123949300,13.74094921875,9.306482315063477,2.745115041732788,-0.019507955759763718
1686052899143949300,13.76094921875,9.322561264038086,2.5691795349121094,-0.056838348507881165
1686052899163949300,13.78094921875,9.476737976074219,2.5748586654663086,0.04727111756801605
1686052899183949300,13.80094921875,9.395814895629883,2.4890408515930176,0.08102936297655106
1686052899203949300,13.82094921875,9.359289169311523,2.374157428741455,-0.00497036287561059
1686052899223949300,13.84094921875,9.581480026245117,2.2528960704803467,-0.014642938040196896
1686052899243949300,13.86094921875,9.853538513183594,2.0812315940856934,-0.20059579610824585
1686052899263949300,13.88094921875,9.865586280822754,2.1309351921081543,0.17306247353553772
1686052899283949300,13.90094921875,9.65148639678955,1.9707248210906982,-0.09543287754058838
1686052899303949300,13.92094921875,9.700126647949219,1.8999043703079224,-0.07687303423881531
1686052899323950800,13.940950927734375,9.724874496459961,1.8512924909591675,0.023424869403243065
1686052899343949300,13.96094921875,9.812912940979004,1.7765072584152222,-0.019555838778614998
1686052899363949300,13.98094921875,9.732419967651367,1.731649398803711,0.04753926768898964
1686052899383949300,14.00094921875,9.560669898986816,1.6486376523971558,-0.0013215993531048298
1686052899403950800,14.020950927734376,9.57289981842041,1.5843486785888672,-0.01649126037955284
1686052899423950800,14.040950927734375,9.595184326171875,1.4948245286941528,-0.03912125527858734
1686052899443949300,14.06094921875,9.772662162780762,1.4306695461273193,-0.023894133046269417
1686052899463949300,14.08094921875,9.819999694824219,1.384289026260376,-0.01824381574988365
1686052899483949300,14.10094921875,9.885285377502441,1.3068605661392212,-0.029850905761122704
1686052899503949300,14.12094921875,9.77845573425293,1.2748740911483765,-0.012095506303012371
1686052899523949300,14.14094921875,9.73392391204834,1.1996769905090332,-0.004922478459775448
1686052899543949300,14.16094921875,9.834163665771484,1.140358328819275,-0.03729208931326866
1686052899563949300,14.18094921875,9.82499885559082,1.1013710498809814,0.05519114062190056
1686052899583949300,14.20094921875,9.785198211669922,1.0476547479629517,0.030607474967837334
1686052899603949300,14.22094921875,9.764664649963379,0.9720554947853088,0.004338293336331844
1686052899623949300,14.24094921875,9.768045425415039,0.944656252861023,0.0026815058663487434
1686052899643949300,14.26094921875,9.78561019897461,0.8918880224227905,-0.012057199142873287
1686052899663949300,14.28094921875,9.869168281555176,0.8266890645027161,-0.0008619126165285707
1686052899683949300,14.30094921875,9.838818550109863,0.7772153615951538,-0.06706637889146805
1686052899703949300,14.32094921875,9.821149826049805,0.7646505832672119,-0.03350924700498581
1686052899723949300,14.34094921875,9.603219985961914,0.7267455458641052,0.01978568360209465
1686052899743949300,14.36094921875,9.642781257629395,0.6833434700965881,0.00028730419580824673
1686052899763949300,14.38094921875,9.705471992492676,0.6475932598114014,-0.008073247969150543
1686052899783949300,14.40094921875,9.85254192352295,0.6079165935516357,0.0638485699892044
1686052899803949300,14.42094921875,9.871686935424805,0.5497374534606934,0.028471847996115685
1686052899823949300,14.44094921875,9.815144538879395,0.4942972958087921,0.001915361382998526
1686052899843949300,14.46094921875,9.855233192443848,0.4638526439666748,0.0027006594464182854
1686052899863949300,14.48094921875,9.860289573669434,0.4194832742214203,0.0020494365599006414
1686052899883949300,14.50094921875,9.830065727233887,0.39709270000457764,0.0018962076865136623
1686052899903950800,14.520950927734376,9.795042991638184,0.35960909724235535,-0.02952529489994049
1686052899923949300,14.54094921875,9.925105094909668,0.3215221166610718,-0.0047405194491147995
1686052899943949300,14.56094921875,9.994939804077148,0.2871701419353485,0.004903324879705906
1686052899963949300,14.58094921875,9.88327407836914,0.2625002861022949,-0.004328716546297073
1686052899983949300,14.60094921875,9.612394332885742,0.24923640489578247,0.0055353944189846516
1686052900003949300,14.62094921875,9.565276145935059,0.19475392997264862,0.06429868191480637
1686052900023949300,14.64094921875,9.457307815551758,0.19219693541526794,0.15051867067813873
1686052900043949300,14.66094921875,9.61960506439209,0.12897086143493652,-0.05907932296395302
1686052900063949300,14.68094921875,9.952457427978516,0.0838736742734909,-0.2648657560348511
1686052900083949300,14.70094921875,11.376307487487793,-0.006751649081707001,-0.019038692116737366
1686052900103949300,14.72094921875,9.65552806854248,0.036506786942481995,0.021892579272389412
1686052900123949300,14.74094921875,9.818122863769531,0.040270473808050156,-0.018425775691866875
1686052900143949300,14.76094921875,9.747418403625488,0.033356018364429474,-0.02201707847416401
1686052900163949300,14.78094921875,9.748117446899414,0.03694731742143631,-0.009835380129516125
1686052900183949300,14.80094921875,9.726491928100586,0.024803930893540382,-0.015648502856492996
1686052900203949300,14.82094921875,9.843703269958496,0.016357185319066048,0.0075561003759503365
1686052900223949300,14.84094921875,9.835054397583008,-0.002240972826257348,0.01258392445743084
1686052900243949300,14.86094921875,9.726521492004395,0.0111378263682127,-0.004405331332236528
1686052900263949300,14.88094921875,9.825881004333496,-0.0021930888760834932,-0.007881712168455124
1686052900283949300,14.90094921875,9.809216499328613,0.0023367409594357014,0.0007757213898003101
1686052900303950800,14.920950927734374,9.79482364654541,-0.014211980625987053,-0.0057460842654109
1686052900323950800,14.940950927734375,9.803422927856445,-0.004817133769392967,-0.011415554210543633
1686052900343949300,14.96094921875,9.798442840576172,-0.014508862048387527,-0.0042808325961232185
1686052900363949300,14.98094921875,9.792227745056152,-0.0018291701562702656,0.004893748089671135
1686052900383949300,15.00094921875,9.7868070602417,-0.02082955464720726,0.00484586413949728
1686052900403949300,15.02094921875,9.798988342285156,-0.016931794583797455,-0.005133168306201696
1686052900423949300,15.04094921875,9.780946731567383,-0.004309562966227531,-0.00824563018977642
1686052900443949300,15.06094921875,9.774702072143555,-0.005784391425549984,-0.0034955344162881374
1686052900463949300,15.08094921875,9.791356086730957,-0.004903324879705906,-0.007134721148759127
1686052900483949300,15.10094921875,9.775650024414062,-0.005966350436210632,-0.01003649365156889
1686052900503950800,15.120950927734375,9.778082847595215,-0.009203311055898666,-0.018119318410754204
1686052900523950800,15.140950927734375,9.791902542114258,-0.01444182451814413,-0.006502651609480381
1686052900543950800,15.160950927734374,9.784805297851562,-0.014154519885778427,-0.010189722292125225
1686052900563950800,15.180950927734376,9.791135787963867,0.005401318892836571,-0.002911349292844534
1686052900583950800,15.200950927734375,9.782631874084473,-0.008188169449567795,-0.0030166939832270145
1686052900603950800,15.220950927734375,9.780352592468262,0.0008619126165285707,-0.0007374141132459044
1686052900623950800,15.240950927734374,9.792476654052734,-0.019086576998233795,-0.012928688898682594
1686052900643950800,15.260950927734376,9.786911964416504,-0.009461885318160057,0.0023654713295400143
1686052900663950800,15.280950927734375,9.762367248535156,-0.009251195006072521,-0.007029375992715359
1686052900683949300,15.30094921875,9.779366493225098,-0.021174320951104164,-0.03344221040606499
1686052900703950800,15.320950927734375,9.797896385192871,-1.0640311241149902,-1.7067210674285889
1686052900723950800,15.340950927734376,9.799457550048828,0.25406309962272644,-0.07238151133060455
1686052900744008700,15.3610087890625,9.78054428100586,-0.22326409816741943,0.2314235419034958
1686052900763950800,15.380950927734375,9.780016899108887,-0.311150461435318,-0.11537178605794907
1686052900783950800,15.400950927734375,9.783540725708008,0.0007086837431415915,0.042425256222486496
1686052900803950800,15.420950927734374,9.814570426940918,-0.06096595525741577,0.021787235513329506
1686052900823950800,15.440950927734375,9.806122779846191,-0.09428366273641586,-0.008149862289428711
1686052900843950800,15.460950927734375,9.791958808898926,-0.12533167004585266,-0.17625156044960022
1686052900863950800,15.480950927734375,9.757913589477539,-0.16237474977970123,-0.16637787222862244
1686052900883950800,15.500950927734374,9.76002025604248,-0.001158793573267758,0.003830722765997052
1686052900903950800,15.520950927734376,9.761582374572754,-0.10903194546699524,-0.12160629034042358
1686052900923950800,15.540950927734375,9.819732666015625,0.14402560889720917,0.11554417759180069
1686052900943949300,15.56094921875,9.788320541381836,0.026106374338269234,0.0035913025494664907
1686052900963949300,15.58094921875,9.773591041564941,0.0334039032459259,-0.1403864175081253
1686052900983950800,15.600950927734376,9.735302925109863,-0.17801368236541748,-0.26285460591316223
1686052901003950800,15.620950927734375,9.842314720153809,-0.04831499233841896,0.017056293785572052
1686052901023950800,15.640950927734375,9.801066398620605,-0.05829402059316635,-0.06581181287765503
1686052901043950800,15.660950927734374,9.821378707885742,0.011530475690960884,0.10489476472139359
1686052901063950800,15.680950927734376,9.756736755371094,-0.06892427802085876,-0.053496044129133224
1686052901083950800,15.700950927734375,9.836634635925293,-0.040462009608745575,0.007872135378420353
1686052901103950800,15.720950927734375,9.724499702453613,-0.12561897933483124,0.015763424336910248
1686052901123950800,15.740950927734374,9.794343948364258,-0.28913336992263794,-0.2350722998380661
1686052901143950800,15.760950927734376,9.75246524810791,-0.23646093904972076,-0.05521029233932495
1686052901163950800,15.780950927734375,9.73735237121582,-0.10779654234647751,0.029084762558341026
1686052901183950800,15.800950927734375,9.768621444702148,-0.03683239594101906,-0.021691467612981796
1686052901203950800,15.820950927734375,9.903510093688965,0.03537672385573387,-0.005679046735167503
1686052901223950800,15.840950927734376,9.834586143493652,-0.09260772168636322,-0.10924264043569565
1686052901243949300,15.86094921875,9.856718063354492,-0.10704954713582993,-0.11111968755722046
1686052901263950800,15.880950927734375,9.85494613647461,-0.176874041557312,-0.0175351332873106
1686052901283950800,15.900950927734375,9.823562622070312,-0.021480778232216835,0.15645629167556763
1686052901303950800,15.920950927734374,9.817702293395996,0.1160038635134697,0.24273374676704407
1686052901323949300,15.94094921875,9.740723609924316,-0.08096232265233994,-0.13043610751628876
1686052901343950800,15.960950927734375,9.815576553344727,-0.03768473491072655,-0.04495352879166603
1686052901363949300,15.98094921875,9.786921501159668,-0.039964016526937485,-0.09295248240232468
1686052901383949300,16.00094921875,9.758152961730957,0.060793567448854446,0.009251195006072521
1686052901403949300,16.02094921875,9.756103515625,-0.10026916861534119,-0.24946624040603638
1686052901423949300,16.04094921875,9.977672576904297,-0.07784028351306915,-0.0876660943031311
1686052901443949300,16.06094921875,9.69837474822998,-0.018148047849535942,0.09765470027923584
1686052901463950800,16.080950927734374,9.812243461608887,0.017659632489085197,0.05481764301657677
1686052901483949300,16.10094921875,9.832804679870605,-0.01568681001663208,0.19363345205783844
1686052901503950800,16.120950927734373,9.798748970031738,-0.10577583312988281,0.16829322278499603
1686052901523949300,16.14094921875,9.7935209274292,-0.2466602325439453,0.030837317928671837
1686052901543949300,16.16094921875,9.75370979309082,-0.323274701833725,-0.13706326484680176
1686052901563949300,16.18094921875,9.848261833190918,-0.39184463024139404,-0.13472650945186615
1686052901583949300,16.20094921875,9.819636344909668,-0.4737550616264343,-0.10916602611541748
1686052901603949300,16.22094921875,9.738414764404297,-0.19413144886493683,0.20340178906917572
1686052901623949300,16.24094921875,9.86616039276123,0.06767929345369339,0.33573412895202637
1686052901643949300,16.26094921875,9.879769325256348,0.07809886336326599,0.13430514931678772
1686052901663949300,16.28094921875,9.711753845214844,-0.052643708884716034,-0.06170336529612541
1686052901683949300,16.30094921875,9.713228225708008,-0.03241749107837677,0.011252747848629951
1686052901703949300,16.32094921875,9.788474082946777,-0.021298818290233612,0.04836287349462509
1686052901723950800,16.340950927734376,9.734681129455566,0.11253705620765686,0.3179691433906555
1686052901743950800,16.360950927734375,9.826618194580078,0.15763424336910248,0.2647221088409424
1686052901763949300,16.38094921875,9.893444061279297,-0.06663542240858078,-0.0842471718788147
1686052901783949300,16.40094921875,9.833580017089844,-0.26065194606781006,-0.1984793245792389
1686052901803950800,16.420950927734374,9.715651512145996,-0.23942974209785461,-0.1817869395017624
1686052901823949300,16.44094921875,9.814809799194336,-0.09109459072351456,0.12092633545398712
1686052901843949300,16.46094921875,9.907130241394043,0.14948438107967377,0.4600314795970917
1686052901863949300,16.48094921875,9.789469718933105,0.17519810795783997,0.2840768098831177
1686052901883949300,16.50094921875,9.731893539428711,-0.009873687289655209,-0.04602613300085068
1686052901903949300,16.52094921875,9.756458282470703,0.13179601728916168,0.19047310948371887
1686052901923949300,16.54094921875,9.708526611328125,0.0838928297162056,0.09339302033185959
1686052901943949300,16.56094921875,9.691642761230469,0.06381984055042267,0.0381539985537529
1686052901963949300,16.58094921875,9.750616073608398,-0.1758301705121994,0.013962984085083008
1686052901983949300,16.60094921875,9.903471946716309,-0.0966874361038208,0.20997150242328644
1686052902003949300,16.62094921875,9.800569534301758,-0.12559981644153595,0.040845081210136414
1686052902023949300,16.64094921875,9.773140907287598,-0.11461522430181503,0.037665579468011856
1686052902043949300,16.66094921875,9.820709228515625,0.034725502133369446,0.13227485120296478
1686052902063949300,16.68094921875,9.86125659942627,0.09710881859064102,0.16348567605018616
1686052902083949300,16.70094921875,9.741632461547852,0.28005456924438477,0.3169635534286499
1686052902103949300,16.72094921875,9.840226173400879,0.16336117684841156,0.18903659284114838
1686052902123949300,16.74094921875,9.754226684570312,-0.051504068076610565,-0.07657615095376968
1686052902143949300,16.76094921875,9.798739433288574,-0.013541605323553085,0.23214179277420044
1686052902163949300,16.78094921875,9.825478553771973,0.010295066982507706,0.29986900091171265
1686052902183949300,16.80094921875,9.79361629486084,-0.04823837801814079,-0.01399171445518732
1686052902203949300,16.82094921875,9.778532028198242,0.026250027120113373,0.20834343135356903
1686052902223949300,16.84094921875,9.781492233276367,-0.0482192225754261,0.049607861787080765
1686052902243949300,16.86094921875,9.774251937866211,-0.03599921613931656,0.017286136746406555
1686052902263949300,16.88094921875,9.827000617980957,0.056675542145967484,0.3432998061180115
1686052902283949300,16.90094921875,9.78996753692627,0.0043861777521669865,0.39901766180992126
1686052902303950800,16.920950927734374,9.789057731628418,-0.024018630385398865,-0.008877700194716454
1686052902323949300,16.94094921875,9.783321380615234,-0.029324183240532875,-0.0031220391392707825
1686052902343949300,16.96094921875,9.785293579101562,-0.03853707015514374,-0.01639549247920513
1686052902363949300,16.98094921875,9.7821044921875,-0.0509486123919487,-0.010429142974317074
1686052902383949300,17.00094921875,9.791950225830078,-0.031411927193403244,-0.0031890766695141792
1686052902403949300,17.02094921875,9.792964935302734,-0.027638664469122887,-0.018636466935276985
1686052902423949300,17.04094921875,9.775554656982422,-0.027303475886583328,-0.01706586964428425
1686052902443949300,17.06094921875,9.790599822998047,-0.029276298359036446,-0.019823990762233734
1686052902463949300,17.08094921875,9.783235549926758,-0.037359122186899185,-0.019450495019555092
1686052902483949300,17.10094921875,9.793405532836914,-0.022007500752806664,-0.005324704572558403
1686052902503949300,17.12094921875,9.791068077087402,-0.01324472390115261,-0.011195287108421326
1686052902523949300,17.14094921875,9.791796684265137,-0.02746628224849701,-0.01886630989611149
1686052902543949300,17.16094921875,9.790532112121582,-0.03457227349281311,-0.015361198224127293
1686052902563949300,17.18094921875,9.785571098327637,-0.024660278111696243,-0.022151153534650803
1686052902583949300,17.20094921875,9.786539077758789,-0.029237991198897362,-0.020350713282823563
1686052902603949300,17.22094921875,9.795100212097168,-0.030894778668880463,-0.004826710559427738
1686052902623949300,17.24094921875,9.78227710723877,-0.026815060526132584,-0.01068771630525589
1686052902643949300,17.26094921875,9.802407264709473,-0.042904093861579895,-0.010850521735846996
1686052902663949300,17.28094921875,9.79508113861084,-0.027696125209331512,-0.007709329482167959
1686052902683949300,17.30094921875,9.792284965515137,-0.035367149859666824,-0.012650961987674236
1686052902703949300,17.32094921875,9.792074203491211,-0.03652593865990639,-0.009002198465168476
1686052902723949300,17.34094921875,9.780562400817871,-0.036075834184885025,-0.020063409581780434
1686052902743949300,17.36094921875,9.795090675354004,-0.027025749906897545,-0.0052002063021063805
1686052902763949300,17.38094921875,9.777728080749512,-0.02862507663667202,-0.007852981798350811
1686052902783949300,17.40094921875,9.790934562683105,-0.03341347724199295,-0.01469082199037075
1686052902803949300,17.42094921875,9.779940605163574,-0.04095042496919632,-0.016558298841118813
1686052902823949300,17.44094921875,9.795914649963379,-0.024861391633749008,-0.025349806994199753
1686052902843949300,17.46094921875,9.803135871887207,-0.029228415340185165,-0.00968215148895979
1686052902863949300,17.48094921875,9.78969955444336,-0.026173412799835205,-0.016816873103380203
1686052902883949300,17.50094921875,9.796058654785156,-0.03809653967618942,-0.02317587286233902
1686052902903949300,17.52094921875,9.780141830444336,-0.02945825830101967,-0.02073378674685955
1686052902923949300,17.54094921875,9.78650951385498,-0.041553765535354614,-0.011300632730126381
1686052902943949300,17.56094921875,9.78222942352295,-0.03533841669559479,-0.010007763281464577
1686052902963949300,17.58094921875,9.798452377319336,-0.04030878096818924,-0.013570335693657398
1686052902983949300,17.60094921875,9.786242485046387,-0.038642413914203644,0.005334281362593174
1686052903003949300,17.62094921875,9.768045425415039,-0.028232425451278687,-0.014384363777935505
1686052903023949300,17.64094921875,9.782075881958008,-0.02942952699959278,-0.008724471554160118
1686052903043949300,17.66094921875,9.795042991638184,-0.023405715823173523,-0.007872135378420353
1686052903063949300,17.68094921875,9.785293579101562,-0.04103661701083183,-0.007814674638211727
1686052903083950800,17.700950927734375,9.785017013549805,-0.0399257093667984,-0.014192827045917511
1686052903103949300,17.72094921875,9.791346549987793,-0.03888183459639549,-0.012306197546422482
1686052903123949300,17.74094921875,9.790801048278809,-0.031976956874132156,-0.01860773377120495
1686052903143949300,17.76094921875,9.783024787902832,-0.03129700571298599,-0.016031574457883835
1686052903163949300,17.78094921875,9.784546852111816,-0.030138209462165833,-0.004817133769392967
1686052903183949300,17.80094921875,9.77730655670166,-0.042023029178380966,0.00045968673657625914
1686052903203949300,17.82094921875,9.781462669372559,-0.02841438539326191,-0.007900865748524666
1686052903223949300,17.84094921875,9.775190353393555,-0.043047744780778885,-0.009059659205377102
1686052903243949300,17.86094921875,9.794947624206543,-0.024296358227729797,-0.024401701986789703
1686052903263949300,17.88094921875,9.795540809631348,-0.02478477731347084,-0.02272576279938221
1686052903283949300,17.90094921875,9.779260635375977,-0.04537491127848625,-0.008571241982281208
1686052903303949300,17.92094921875,9.784594535827637,-0.03931279480457306,-0.01222958229482174
1686052903323949300,17.94094921875,9.798835754394531,-0.030387207865715027,-0.010936712846159935
1686052903343949300,17.96094921875,9.790129661560059,-0.04362235590815544,-0.009279925376176834
1686052903363949300,17.98094921875,9.796575546264648,-0.03694731742143631,-0.01902911625802517
1686052903383949300,18.00094921875,9.780888557434082,-0.021883003413677216,-0.021413739770650864
1686052903403949300,18.02094921875,9.788655281066895,-0.025819070637226105,-0.01760217174887657
1686052903423949300,18.04094921875,9.771052360534668,-0.036621708422899246,-0.002442085649818182
1686052903443949300,18.06094921875,9.794133186340332,-0.020159177482128143,-0.01922065205872059
1686052903463949300,18.08094921875,9.796517372131348,-0.03857537731528282,-0.002240972826257348
1686052903483949300,18.10094921875,9.784173965454102,-0.030511707067489624,-0.017104176804423332
1686052903503949300,18.12094921875,9.789374351501465,-0.033921051770448685,-0.014748282730579376
1686052903523949300,18.14094921875,9.777910232543945,-0.04170699417591095,-0.023252487182617188
1686052903543949300,18.16094921875,9.797141075134277,-0.03907337039709091,-0.014796166680753231
1686052903563949300,18.18094921875,9.791183471679688,-0.04668693244457245,-0.00027772740577347577
1686052903583949300,18.20094921875,9.795397758483887,-0.024066515266895294,-0.015265430323779583
1686052903603949300,18.22094921875,9.782373428344727,-0.03251326084136963,-0.003342305775731802
1686052903623950800,18.240950927734374,9.79753303527832,-0.03374866768717766,0.005257667042315006
1686052903643949300,18.26094921875,9.801631927490234,-0.031038431450724602,-0.013953407295048237
1686052903663949300,18.28094921875,9.782803535461426,-0.03507984057068825,-0.01784159056842327
1686052903683949300,18.30094921875,9.783809661865234,-0.033873166888952255,-0.0039169141091406345
1686052903703949300,18.32094921875,9.781424522399902,-0.03583640977740288,-0.021270088851451874
1686052903723949300,18.34094921875,9.78587818145752,-0.027571626007556915,-0.015792153775691986
1686052903743950800,18.360950927734375,9.802905082702637,-0.03280056267976761,-0.004012682009488344
1686052903763949300,18.38094921875,9.785887718200684,-0.034936193376779556,-0.01324472390115261
1686052903783949300,18.40094921875,9.798883438110352,-0.028778305277228355,-0.004491522442549467
1686052903803949300,18.42094921875,9.781444549560547,-0.033020827919244766,-0.02282153069972992
